STUDYID,RDOMAIN,USUBJID,IDVAR,IDVARVAL,RELTYPE,RELID
HF-1002-CL-101,EX,HF-1002-CL-101-101-2001,EXSEQ,1,ONE,INFREL01
HF-1002-CL-101,AE,HF-1002-CL-101-101-2001,AESEQ,2,MANY,INFREL01
HF-1002-CL-101,EX,HF-1002-CL-101-101-2004,EXSEQ,1,ONE,INFREL02
HF-1002-CL-101,AE,HF-1002-CL-101-101-2004,AESEQ,2,MANY,INFREL02
HF-1002-CL-101,EX,HF-1002-CL-101-101-3001,EXSEQ,1,ONE,INFREL03
HF-1002-CL-101,AE,HF-1002-CL-101-101-3001,AESEQ,2,MANY,INFREL03
HF-1002-CL-101,EX,HF-1002-CL-101-103-1006,EXSEQ,1,ONE,INFREL04
HF-1002-CL-101,AE,HF-1002-CL-101-103-1006,AESEQ,2,MANY,INFREL04
