STUDYID,RDOMAIN,USUBJID,IDVAR,IDVARVAL,QNAM,QLABEL,QVAL,QORIG,QEVAL
HF-1002-CL-101,DS,HF-1002-CL-101-102-2005,DSSEQ,3,DSREASDT,Reason Detail,Cardiac failure (disease progression),Collected,
HF-1002-CL-101,DS,HF-1002-CL-101-103-3006,DSSEQ,3,DSREASDT,Reason Detail,Withdrawal by subject,Collected,
