<?xml version="1.0" encoding="UTF-8"?>
<ODM xmlns="http://www.cdisc.org/ns/odm/v1.3" xmlns:def="http://www.cdisc.org/ns/def/v2.1" xmlns:xlink="http://www.w3.org/1999/xlink" xmlns:xsi="http://www.w3.org/2001/XMLSchema-instance" ODMVersion="1.3.2" FileType="Snapshot" FileOID="DEFINE.HF-1002-CL-101" CreationDateTime="2026-06-09T00:00:00" def:Context="Submission">
<Study OID="ST.HF-1002-CL-101">
<GlobalVariables>
<StudyName>HF-1002-CL-101</StudyName>
<StudyDescription>SDTM tabulation datasets for HF-1002-CL-101</StudyDescription>
<ProtocolName>HF-1002-CL-101</ProtocolName>
</GlobalVariables>
<MetaDataVersion OID="MDV.1" Name="SDTM HF-1002-CL-101" Description="SDTM Metadata" def:DefineVersion="2.1.0" def:StandardName="SDTMIG" def:StandardVersion="3.4">
<def:Standards>
<def:Standard OID="STD.SDTMIG" Name="SDTMIG" Type="IG" Version="3.4" Status="Final"/>
<def:Standard OID="STD.SDTM" Name="SDTM" Type="Model" Version="2.0" Status="Final"/>
</def:Standards>
<ItemGroupDef OID="IG.TS" Name="TS" Repeating="Yes" IsReferenceData="No" SASDatasetName="TS" Purpose="Tabulation" def:Structure="One record per trial summary parameter value" def:Class="TRIAL DESIGN" def:ArchiveLocationID="LF.TS">
<Description><TranslatedText xml:lang="en">Trial Summary</TranslatedText></Description>
<ItemRef ItemOID="IT.TS.STUDYID" OrderNumber="1" Mandatory="Yes" KeySequence="1"/>
<ItemRef ItemOID="IT.TS.DOMAIN" OrderNumber="2" Mandatory="Yes"/>
<ItemRef ItemOID="IT.TS.TSSEQ" OrderNumber="3" Mandatory="No" KeySequence="3"/>
<ItemRef ItemOID="IT.TS.TSPARMCD" OrderNumber="4" Mandatory="No" KeySequence="2"/>
<ItemRef ItemOID="IT.TS.TSPARM" OrderNumber="5" Mandatory="No"/>
<ItemRef ItemOID="IT.TS.TSVAL" OrderNumber="6" Mandatory="No"/>
<ItemRef ItemOID="IT.TS.TSVAL1" OrderNumber="7" Mandatory="No"/>
<def:leaf ID="LF.TS" xlink:href="ts.xpt"><def:title>ts.xpt</def:title></def:leaf>
</ItemGroupDef>
<ItemGroupDef OID="IG.TA" Name="TA" Repeating="Yes" IsReferenceData="No" SASDatasetName="TA" Purpose="Tabulation" def:Structure="One record per planned element per arm" def:Class="TRIAL DESIGN" def:ArchiveLocationID="LF.TA">
<Description><TranslatedText xml:lang="en">Trial Arms</TranslatedText></Description>
<ItemRef ItemOID="IT.TA.STUDYID" OrderNumber="1" Mandatory="Yes" KeySequence="1"/>
<ItemRef ItemOID="IT.TA.DOMAIN" OrderNumber="2" Mandatory="Yes"/>
<ItemRef ItemOID="IT.TA.ARMCD" OrderNumber="3" Mandatory="No" KeySequence="2"/>
<ItemRef ItemOID="IT.TA.ARM" OrderNumber="4" Mandatory="No"/>
<ItemRef ItemOID="IT.TA.TAETORD" OrderNumber="5" Mandatory="No" KeySequence="3"/>
<ItemRef ItemOID="IT.TA.ETCD" OrderNumber="6" Mandatory="No"/>
<ItemRef ItemOID="IT.TA.ELEMENT" OrderNumber="7" Mandatory="No"/>
<ItemRef ItemOID="IT.TA.TABRANCH" OrderNumber="8" Mandatory="No"/>
<ItemRef ItemOID="IT.TA.TATRANS" OrderNumber="9" Mandatory="No"/>
<ItemRef ItemOID="IT.TA.EPOCH" OrderNumber="10" Mandatory="No"/>
<def:leaf ID="LF.TA" xlink:href="ta.xpt"><def:title>ta.xpt</def:title></def:leaf>
</ItemGroupDef>
<ItemGroupDef OID="IG.TE" Name="TE" Repeating="Yes" IsReferenceData="No" SASDatasetName="TE" Purpose="Tabulation" def:Structure="One record per planned element" def:Class="TRIAL DESIGN" def:ArchiveLocationID="LF.TE">
<Description><TranslatedText xml:lang="en">Trial Elements</TranslatedText></Description>
<ItemRef ItemOID="IT.TE.STUDYID" OrderNumber="1" Mandatory="Yes" KeySequence="1"/>
<ItemRef ItemOID="IT.TE.DOMAIN" OrderNumber="2" Mandatory="Yes"/>
<ItemRef ItemOID="IT.TE.ETCD" OrderNumber="3" Mandatory="No" KeySequence="2"/>
<ItemRef ItemOID="IT.TE.ELEMENT" OrderNumber="4" Mandatory="No"/>
<ItemRef ItemOID="IT.TE.TESTRL" OrderNumber="5" Mandatory="No"/>
<ItemRef ItemOID="IT.TE.TEENRL" OrderNumber="6" Mandatory="No"/>
<def:leaf ID="LF.TE" xlink:href="te.xpt"><def:title>te.xpt</def:title></def:leaf>
</ItemGroupDef>
<ItemGroupDef OID="IG.TV" Name="TV" Repeating="Yes" IsReferenceData="No" SASDatasetName="TV" Purpose="Tabulation" def:Structure="One record per planned visit per arm" def:Class="TRIAL DESIGN" def:ArchiveLocationID="LF.TV">
<Description><TranslatedText xml:lang="en">Trial Visits</TranslatedText></Description>
<ItemRef ItemOID="IT.TV.STUDYID" OrderNumber="1" Mandatory="Yes" KeySequence="1"/>
<ItemRef ItemOID="IT.TV.DOMAIN" OrderNumber="2" Mandatory="Yes"/>
<ItemRef ItemOID="IT.TV.VISITNUM" OrderNumber="3" Mandatory="No" KeySequence="2"/>
<ItemRef ItemOID="IT.TV.VISIT" OrderNumber="4" Mandatory="No"/>
<ItemRef ItemOID="IT.TV.VISITDY" OrderNumber="5" Mandatory="No"/>
<ItemRef ItemOID="IT.TV.ARMCD" OrderNumber="6" Mandatory="No" KeySequence="3"/>
<ItemRef ItemOID="IT.TV.ARM" OrderNumber="7" Mandatory="No"/>
<ItemRef ItemOID="IT.TV.TVSTRL" OrderNumber="8" Mandatory="No"/>
<ItemRef ItemOID="IT.TV.TVENRL" OrderNumber="9" Mandatory="No"/>
<def:leaf ID="LF.TV" xlink:href="tv.xpt"><def:title>tv.xpt</def:title></def:leaf>
</ItemGroupDef>
<ItemGroupDef OID="IG.TI" Name="TI" Repeating="Yes" IsReferenceData="No" SASDatasetName="TI" Purpose="Tabulation" def:Structure="One record per inclusion/exclusion criterion" def:Class="TRIAL DESIGN" def:ArchiveLocationID="LF.TI">
<Description><TranslatedText xml:lang="en">Trial Inclusion/Exclusion Criteria</TranslatedText></Description>
<ItemRef ItemOID="IT.TI.STUDYID" OrderNumber="1" Mandatory="Yes" KeySequence="1"/>
<ItemRef ItemOID="IT.TI.DOMAIN" OrderNumber="2" Mandatory="Yes"/>
<ItemRef ItemOID="IT.TI.IETESTCD" OrderNumber="3" Mandatory="No" KeySequence="2"/>
<ItemRef ItemOID="IT.TI.IETEST" OrderNumber="4" Mandatory="No"/>
<ItemRef ItemOID="IT.TI.IECAT" OrderNumber="5" Mandatory="No"/>
<def:leaf ID="LF.TI" xlink:href="ti.xpt"><def:title>ti.xpt</def:title></def:leaf>
</ItemGroupDef>
<ItemGroupDef OID="IG.DM" Name="DM" Repeating="No" IsReferenceData="No" SASDatasetName="DM" Purpose="Tabulation" def:Structure="One record per subject" def:Class="SPECIAL PURPOSE" def:ArchiveLocationID="LF.DM">
<Description><TranslatedText xml:lang="en">Demographics</TranslatedText></Description>
<ItemRef ItemOID="IT.DM.STUDYID" OrderNumber="1" Mandatory="Yes" KeySequence="1"/>
<ItemRef ItemOID="IT.DM.DOMAIN" OrderNumber="2" Mandatory="Yes"/>
<ItemRef ItemOID="IT.DM.USUBJID" OrderNumber="3" Mandatory="Yes" KeySequence="2"/>
<ItemRef ItemOID="IT.DM.SUBJID" OrderNumber="4" Mandatory="No"/>
<ItemRef ItemOID="IT.DM.RFSTDTC" OrderNumber="5" Mandatory="No"/>
<ItemRef ItemOID="IT.DM.RFENDTC" OrderNumber="6" Mandatory="No"/>
<ItemRef ItemOID="IT.DM.RFXSTDTC" OrderNumber="7" Mandatory="No"/>
<ItemRef ItemOID="IT.DM.RFXENDTC" OrderNumber="8" Mandatory="No"/>
<ItemRef ItemOID="IT.DM.RFICDTC" OrderNumber="9" Mandatory="No"/>
<ItemRef ItemOID="IT.DM.RFPENDTC" OrderNumber="10" Mandatory="No"/>
<ItemRef ItemOID="IT.DM.DTHDTC" OrderNumber="11" Mandatory="No"/>
<ItemRef ItemOID="IT.DM.DTHFL" OrderNumber="12" Mandatory="No"/>
<ItemRef ItemOID="IT.DM.SITEID" OrderNumber="13" Mandatory="No"/>
<ItemRef ItemOID="IT.DM.BRTHDTC" OrderNumber="14" Mandatory="No"/>
<ItemRef ItemOID="IT.DM.AGE" OrderNumber="15" Mandatory="No"/>
<ItemRef ItemOID="IT.DM.AGEU" OrderNumber="16" Mandatory="No"/>
<ItemRef ItemOID="IT.DM.SEX" OrderNumber="17" Mandatory="No"/>
<ItemRef ItemOID="IT.DM.RACE" OrderNumber="18" Mandatory="No"/>
<ItemRef ItemOID="IT.DM.ETHNIC" OrderNumber="19" Mandatory="No"/>
<ItemRef ItemOID="IT.DM.ARMCD" OrderNumber="20" Mandatory="No"/>
<ItemRef ItemOID="IT.DM.ARM" OrderNumber="21" Mandatory="No"/>
<ItemRef ItemOID="IT.DM.ACTARMCD" OrderNumber="22" Mandatory="No"/>
<ItemRef ItemOID="IT.DM.ACTARM" OrderNumber="23" Mandatory="No"/>
<ItemRef ItemOID="IT.DM.COUNTRY" OrderNumber="24" Mandatory="No"/>
<def:leaf ID="LF.DM" xlink:href="dm.xpt"><def:title>dm.xpt</def:title></def:leaf>
</ItemGroupDef>
<ItemGroupDef OID="IG.SE" Name="SE" Repeating="Yes" IsReferenceData="No" SASDatasetName="SE" Purpose="Tabulation" def:Structure="One record per actual element per subject" def:Class="SPECIAL PURPOSE" def:ArchiveLocationID="LF.SE">
<Description><TranslatedText xml:lang="en">Subject Elements</TranslatedText></Description>
<ItemRef ItemOID="IT.SE.STUDYID" OrderNumber="1" Mandatory="Yes" KeySequence="1"/>
<ItemRef ItemOID="IT.SE.DOMAIN" OrderNumber="2" Mandatory="Yes"/>
<ItemRef ItemOID="IT.SE.USUBJID" OrderNumber="3" Mandatory="Yes" KeySequence="2"/>
<ItemRef ItemOID="IT.SE.SESEQ" OrderNumber="4" Mandatory="No"/>
<ItemRef ItemOID="IT.SE.ETCD" OrderNumber="5" Mandatory="No" KeySequence="3"/>
<ItemRef ItemOID="IT.SE.ELEMENT" OrderNumber="6" Mandatory="No"/>
<ItemRef ItemOID="IT.SE.EPOCH" OrderNumber="7" Mandatory="No"/>
<ItemRef ItemOID="IT.SE.TAETORD" OrderNumber="8" Mandatory="No"/>
<ItemRef ItemOID="IT.SE.SESTDTC" OrderNumber="9" Mandatory="No" KeySequence="4"/>
<ItemRef ItemOID="IT.SE.SEENDTC" OrderNumber="10" Mandatory="No"/>
<def:leaf ID="LF.SE" xlink:href="se.xpt"><def:title>se.xpt</def:title></def:leaf>
</ItemGroupDef>
<ItemGroupDef OID="IG.SV" Name="SV" Repeating="Yes" IsReferenceData="No" SASDatasetName="SV" Purpose="Tabulation" def:Structure="One record per actual visit per subject" def:Class="SPECIAL PURPOSE" def:ArchiveLocationID="LF.SV">
<Description><TranslatedText xml:lang="en">Subject Visits</TranslatedText></Description>
<ItemRef ItemOID="IT.SV.STUDYID" OrderNumber="1" Mandatory="Yes" KeySequence="1"/>
<ItemRef ItemOID="IT.SV.DOMAIN" OrderNumber="2" Mandatory="Yes"/>
<ItemRef ItemOID="IT.SV.USUBJID" OrderNumber="3" Mandatory="Yes" KeySequence="2"/>
<ItemRef ItemOID="IT.SV.VISITNUM" OrderNumber="4" Mandatory="No" KeySequence="3"/>
<ItemRef ItemOID="IT.SV.VISIT" OrderNumber="5" Mandatory="No"/>
<ItemRef ItemOID="IT.SV.VISITDY" OrderNumber="6" Mandatory="No"/>
<ItemRef ItemOID="IT.SV.EPOCH" OrderNumber="7" Mandatory="No"/>
<ItemRef ItemOID="IT.SV.SVSTDTC" OrderNumber="8" Mandatory="No"/>
<ItemRef ItemOID="IT.SV.SVENDTC" OrderNumber="9" Mandatory="No"/>
<ItemRef ItemOID="IT.SV.SVSTDY" OrderNumber="10" Mandatory="No"/>
<def:leaf ID="LF.SV" xlink:href="sv.xpt"><def:title>sv.xpt</def:title></def:leaf>
</ItemGroupDef>
<ItemGroupDef OID="IG.EX" Name="EX" Repeating="Yes" IsReferenceData="No" SASDatasetName="EX" Purpose="Tabulation" def:Structure="One record per protocol-specified study treatment per subject" def:Class="INTERVENTIONS" def:ArchiveLocationID="LF.EX">
<Description><TranslatedText xml:lang="en">Exposure</TranslatedText></Description>
<ItemRef ItemOID="IT.EX.STUDYID" OrderNumber="1" Mandatory="Yes" KeySequence="1"/>
<ItemRef ItemOID="IT.EX.DOMAIN" OrderNumber="2" Mandatory="Yes"/>
<ItemRef ItemOID="IT.EX.USUBJID" OrderNumber="3" Mandatory="Yes" KeySequence="2"/>
<ItemRef ItemOID="IT.EX.EXSEQ" OrderNumber="4" Mandatory="No"/>
<ItemRef ItemOID="IT.EX.EXTRT" OrderNumber="5" Mandatory="No" KeySequence="3"/>
<ItemRef ItemOID="IT.EX.EXDOSE" OrderNumber="6" Mandatory="No"/>
<ItemRef ItemOID="IT.EX.EXDOSU" OrderNumber="7" Mandatory="No"/>
<ItemRef ItemOID="IT.EX.EXDOSFRM" OrderNumber="8" Mandatory="No"/>
<ItemRef ItemOID="IT.EX.EXROUTE" OrderNumber="9" Mandatory="No"/>
<ItemRef ItemOID="IT.EX.VISITNUM" OrderNumber="10" Mandatory="No"/>
<ItemRef ItemOID="IT.EX.VISIT" OrderNumber="11" Mandatory="No"/>
<ItemRef ItemOID="IT.EX.EPOCH" OrderNumber="12" Mandatory="No"/>
<ItemRef ItemOID="IT.EX.EXSTDTC" OrderNumber="13" Mandatory="No" KeySequence="4"/>
<ItemRef ItemOID="IT.EX.EXENDTC" OrderNumber="14" Mandatory="No"/>
<ItemRef ItemOID="IT.EX.EXSTDY" OrderNumber="15" Mandatory="No"/>
<ItemRef ItemOID="IT.EX.EXENDY" OrderNumber="16" Mandatory="No"/>
<def:leaf ID="LF.EX" xlink:href="ex.xpt"><def:title>ex.xpt</def:title></def:leaf>
</ItemGroupDef>
<ItemGroupDef OID="IG.SUPPEX" Name="SUPPEX" Repeating="Yes" IsReferenceData="No" SASDatasetName="SUPPEX" Purpose="Tabulation" def:Structure="One record per IDVAR, IDVARVAL, and QNAM value per subject" def:Class="RELATIONSHIP" def:ArchiveLocationID="LF.SUPPEX">
<Description><TranslatedText xml:lang="en">Supplemental Qualifiers for EX</TranslatedText></Description>
<ItemRef ItemOID="IT.SUPPEX.STUDYID" OrderNumber="1" Mandatory="Yes" KeySequence="1"/>
<ItemRef ItemOID="IT.SUPPEX.RDOMAIN" OrderNumber="2" Mandatory="No" KeySequence="2"/>
<ItemRef ItemOID="IT.SUPPEX.USUBJID" OrderNumber="3" Mandatory="Yes" KeySequence="3"/>
<ItemRef ItemOID="IT.SUPPEX.IDVAR" OrderNumber="4" Mandatory="No" KeySequence="4"/>
<ItemRef ItemOID="IT.SUPPEX.IDVARVAL" OrderNumber="5" Mandatory="No" KeySequence="5"/>
<ItemRef ItemOID="IT.SUPPEX.QNAM" OrderNumber="6" Mandatory="No" KeySequence="6"/>
<ItemRef ItemOID="IT.SUPPEX.QLABEL" OrderNumber="7" Mandatory="No"/>
<ItemRef ItemOID="IT.SUPPEX.QVAL" OrderNumber="8" Mandatory="No"/>
<ItemRef ItemOID="IT.SUPPEX.QORIG" OrderNumber="9" Mandatory="No"/>
<ItemRef ItemOID="IT.SUPPEX.QEVAL" OrderNumber="10" Mandatory="No"/>
<def:leaf ID="LF.SUPPEX" xlink:href="suppex.xpt"><def:title>suppex.xpt</def:title></def:leaf>
</ItemGroupDef>
<ItemGroupDef OID="IG.CM" Name="CM" Repeating="Yes" IsReferenceData="No" SASDatasetName="CM" Purpose="Tabulation" def:Structure="One record per recorded medication per subject" def:Class="INTERVENTIONS" def:ArchiveLocationID="LF.CM">
<Description><TranslatedText xml:lang="en">Concomitant Medications</TranslatedText></Description>
<ItemRef ItemOID="IT.CM.STUDYID" OrderNumber="1" Mandatory="Yes" KeySequence="1"/>
<ItemRef ItemOID="IT.CM.DOMAIN" OrderNumber="2" Mandatory="Yes"/>
<ItemRef ItemOID="IT.CM.USUBJID" OrderNumber="3" Mandatory="Yes" KeySequence="2"/>
<ItemRef ItemOID="IT.CM.CMSEQ" OrderNumber="4" Mandatory="No"/>
<ItemRef ItemOID="IT.CM.CMTRT" OrderNumber="5" Mandatory="No" KeySequence="3"/>
<ItemRef ItemOID="IT.CM.CMDECOD" OrderNumber="6" Mandatory="No"/>
<ItemRef ItemOID="IT.CM.CMCLAS" OrderNumber="7" Mandatory="No"/>
<ItemRef ItemOID="IT.CM.CMINDC" OrderNumber="8" Mandatory="No"/>
<ItemRef ItemOID="IT.CM.CMDOSE" OrderNumber="9" Mandatory="No"/>
<ItemRef ItemOID="IT.CM.CMDOSU" OrderNumber="10" Mandatory="No"/>
<ItemRef ItemOID="IT.CM.CMDOSFRQ" OrderNumber="11" Mandatory="No"/>
<ItemRef ItemOID="IT.CM.CMROUTE" OrderNumber="12" Mandatory="No"/>
<ItemRef ItemOID="IT.CM.CMSTDTC" OrderNumber="13" Mandatory="No" KeySequence="4"/>
<ItemRef ItemOID="IT.CM.CMENDTC" OrderNumber="14" Mandatory="No"/>
<ItemRef ItemOID="IT.CM.CMSTDY" OrderNumber="15" Mandatory="No"/>
<ItemRef ItemOID="IT.CM.CMENDY" OrderNumber="16" Mandatory="No"/>
<ItemRef ItemOID="IT.CM.CMENRTPT" OrderNumber="17" Mandatory="No"/>
<ItemRef ItemOID="IT.CM.CMENTPT" OrderNumber="18" Mandatory="No"/>
<def:leaf ID="LF.CM" xlink:href="cm.xpt"><def:title>cm.xpt</def:title></def:leaf>
</ItemGroupDef>
<ItemGroupDef OID="IG.AE" Name="AE" Repeating="Yes" IsReferenceData="No" SASDatasetName="AE" Purpose="Tabulation" def:Structure="One record per adverse event per subject" def:Class="EVENTS" def:ArchiveLocationID="LF.AE">
<Description><TranslatedText xml:lang="en">Adverse Events</TranslatedText></Description>
<ItemRef ItemOID="IT.AE.STUDYID" OrderNumber="1" Mandatory="Yes" KeySequence="1"/>
<ItemRef ItemOID="IT.AE.DOMAIN" OrderNumber="2" Mandatory="Yes"/>
<ItemRef ItemOID="IT.AE.USUBJID" OrderNumber="3" Mandatory="Yes" KeySequence="2"/>
<ItemRef ItemOID="IT.AE.AESEQ" OrderNumber="4" Mandatory="No"/>
<ItemRef ItemOID="IT.AE.AETERM" OrderNumber="5" Mandatory="No"/>
<ItemRef ItemOID="IT.AE.AEDECOD" OrderNumber="6" Mandatory="No" KeySequence="3"/>
<ItemRef ItemOID="IT.AE.AEBODSYS" OrderNumber="7" Mandatory="No"/>
<ItemRef ItemOID="IT.AE.AESER" OrderNumber="8" Mandatory="No"/>
<ItemRef ItemOID="IT.AE.AESDTH" OrderNumber="9" Mandatory="No"/>
<ItemRef ItemOID="IT.AE.AESHOSP" OrderNumber="10" Mandatory="No"/>
<ItemRef ItemOID="IT.AE.AEACN" OrderNumber="11" Mandatory="No"/>
<ItemRef ItemOID="IT.AE.AEREL" OrderNumber="12" Mandatory="No"/>
<ItemRef ItemOID="IT.AE.AEOUT" OrderNumber="13" Mandatory="No"/>
<ItemRef ItemOID="IT.AE.AETOXGR" OrderNumber="14" Mandatory="No"/>
<ItemRef ItemOID="IT.AE.AECONTRT" OrderNumber="15" Mandatory="No"/>
<ItemRef ItemOID="IT.AE.EPOCH" OrderNumber="16" Mandatory="No"/>
<ItemRef ItemOID="IT.AE.AESTDTC" OrderNumber="17" Mandatory="No" KeySequence="4"/>
<ItemRef ItemOID="IT.AE.AEENDTC" OrderNumber="18" Mandatory="No"/>
<ItemRef ItemOID="IT.AE.AESTDY" OrderNumber="19" Mandatory="No"/>
<ItemRef ItemOID="IT.AE.AEENDY" OrderNumber="20" Mandatory="No"/>
<ItemRef ItemOID="IT.AE.AEENRTPT" OrderNumber="21" Mandatory="No"/>
<ItemRef ItemOID="IT.AE.AEENTPT" OrderNumber="22" Mandatory="No"/>
<def:leaf ID="LF.AE" xlink:href="ae.xpt"><def:title>ae.xpt</def:title></def:leaf>
</ItemGroupDef>
<ItemGroupDef OID="IG.SUPPAE" Name="SUPPAE" Repeating="Yes" IsReferenceData="No" SASDatasetName="SUPPAE" Purpose="Tabulation" def:Structure="One record per IDVAR, IDVARVAL, and QNAM value per subject" def:Class="RELATIONSHIP" def:ArchiveLocationID="LF.SUPPAE">
<Description><TranslatedText xml:lang="en">Supplemental Qualifiers for AE</TranslatedText></Description>
<ItemRef ItemOID="IT.SUPPAE.STUDYID" OrderNumber="1" Mandatory="Yes" KeySequence="1"/>
<ItemRef ItemOID="IT.SUPPAE.RDOMAIN" OrderNumber="2" Mandatory="No" KeySequence="2"/>
<ItemRef ItemOID="IT.SUPPAE.USUBJID" OrderNumber="3" Mandatory="Yes" KeySequence="3"/>
<ItemRef ItemOID="IT.SUPPAE.IDVAR" OrderNumber="4" Mandatory="No" KeySequence="4"/>
<ItemRef ItemOID="IT.SUPPAE.IDVARVAL" OrderNumber="5" Mandatory="No" KeySequence="5"/>
<ItemRef ItemOID="IT.SUPPAE.QNAM" OrderNumber="6" Mandatory="No" KeySequence="6"/>
<ItemRef ItemOID="IT.SUPPAE.QLABEL" OrderNumber="7" Mandatory="No"/>
<ItemRef ItemOID="IT.SUPPAE.QVAL" OrderNumber="8" Mandatory="No"/>
<ItemRef ItemOID="IT.SUPPAE.QORIG" OrderNumber="9" Mandatory="No"/>
<ItemRef ItemOID="IT.SUPPAE.QEVAL" OrderNumber="10" Mandatory="No"/>
<def:leaf ID="LF.SUPPAE" xlink:href="suppae.xpt"><def:title>suppae.xpt</def:title></def:leaf>
</ItemGroupDef>
<ItemGroupDef OID="IG.MH" Name="MH" Repeating="Yes" IsReferenceData="No" SASDatasetName="MH" Purpose="Tabulation" def:Structure="One record per medical history event per subject" def:Class="EVENTS" def:ArchiveLocationID="LF.MH">
<Description><TranslatedText xml:lang="en">Medical History</TranslatedText></Description>
<ItemRef ItemOID="IT.MH.STUDYID" OrderNumber="1" Mandatory="Yes" KeySequence="1"/>
<ItemRef ItemOID="IT.MH.DOMAIN" OrderNumber="2" Mandatory="Yes"/>
<ItemRef ItemOID="IT.MH.USUBJID" OrderNumber="3" Mandatory="Yes" KeySequence="2"/>
<ItemRef ItemOID="IT.MH.MHSEQ" OrderNumber="4" Mandatory="No"/>
<ItemRef ItemOID="IT.MH.MHTERM" OrderNumber="5" Mandatory="No"/>
<ItemRef ItemOID="IT.MH.MHDECOD" OrderNumber="6" Mandatory="No" KeySequence="3"/>
<ItemRef ItemOID="IT.MH.MHBODSYS" OrderNumber="7" Mandatory="No"/>
<ItemRef ItemOID="IT.MH.MHCAT" OrderNumber="8" Mandatory="No"/>
<ItemRef ItemOID="IT.MH.MHSTDTC" OrderNumber="9" Mandatory="No" KeySequence="4"/>
<ItemRef ItemOID="IT.MH.MHENRTPT" OrderNumber="10" Mandatory="No"/>
<ItemRef ItemOID="IT.MH.MHENTPT" OrderNumber="11" Mandatory="No"/>
<def:leaf ID="LF.MH" xlink:href="mh.xpt"><def:title>mh.xpt</def:title></def:leaf>
</ItemGroupDef>
<ItemGroupDef OID="IG.DS" Name="DS" Repeating="Yes" IsReferenceData="No" SASDatasetName="DS" Purpose="Tabulation" def:Structure="One record per disposition status or milestone per subject" def:Class="EVENTS" def:ArchiveLocationID="LF.DS">
<Description><TranslatedText xml:lang="en">Disposition</TranslatedText></Description>
<ItemRef ItemOID="IT.DS.STUDYID" OrderNumber="1" Mandatory="Yes" KeySequence="1"/>
<ItemRef ItemOID="IT.DS.DOMAIN" OrderNumber="2" Mandatory="Yes"/>
<ItemRef ItemOID="IT.DS.USUBJID" OrderNumber="3" Mandatory="Yes" KeySequence="2"/>
<ItemRef ItemOID="IT.DS.DSSEQ" OrderNumber="4" Mandatory="No"/>
<ItemRef ItemOID="IT.DS.DSTERM" OrderNumber="5" Mandatory="No"/>
<ItemRef ItemOID="IT.DS.DSDECOD" OrderNumber="6" Mandatory="No" KeySequence="3"/>
<ItemRef ItemOID="IT.DS.DSCAT" OrderNumber="7" Mandatory="No"/>
<ItemRef ItemOID="IT.DS.DSSCAT" OrderNumber="8" Mandatory="No"/>
<ItemRef ItemOID="IT.DS.VISITNUM" OrderNumber="9" Mandatory="No"/>
<ItemRef ItemOID="IT.DS.VISIT" OrderNumber="10" Mandatory="No"/>
<ItemRef ItemOID="IT.DS.EPOCH" OrderNumber="11" Mandatory="No"/>
<ItemRef ItemOID="IT.DS.DSSTDTC" OrderNumber="12" Mandatory="No" KeySequence="4"/>
<ItemRef ItemOID="IT.DS.DSSTDY" OrderNumber="13" Mandatory="No"/>
<def:leaf ID="LF.DS" xlink:href="ds.xpt"><def:title>ds.xpt</def:title></def:leaf>
</ItemGroupDef>
<ItemGroupDef OID="IG.SUPPDS" Name="SUPPDS" Repeating="Yes" IsReferenceData="No" SASDatasetName="SUPPDS" Purpose="Tabulation" def:Structure="One record per IDVAR, IDVARVAL, and QNAM value per subject" def:Class="RELATIONSHIP" def:ArchiveLocationID="LF.SUPPDS">
<Description><TranslatedText xml:lang="en">Supplemental Qualifiers for DS</TranslatedText></Description>
<ItemRef ItemOID="IT.SUPPDS.STUDYID" OrderNumber="1" Mandatory="Yes" KeySequence="1"/>
<ItemRef ItemOID="IT.SUPPDS.RDOMAIN" OrderNumber="2" Mandatory="No" KeySequence="2"/>
<ItemRef ItemOID="IT.SUPPDS.USUBJID" OrderNumber="3" Mandatory="Yes" KeySequence="3"/>
<ItemRef ItemOID="IT.SUPPDS.IDVAR" OrderNumber="4" Mandatory="No" KeySequence="4"/>
<ItemRef ItemOID="IT.SUPPDS.IDVARVAL" OrderNumber="5" Mandatory="No" KeySequence="5"/>
<ItemRef ItemOID="IT.SUPPDS.QNAM" OrderNumber="6" Mandatory="No" KeySequence="6"/>
<ItemRef ItemOID="IT.SUPPDS.QLABEL" OrderNumber="7" Mandatory="No"/>
<ItemRef ItemOID="IT.SUPPDS.QVAL" OrderNumber="8" Mandatory="No"/>
<ItemRef ItemOID="IT.SUPPDS.QORIG" OrderNumber="9" Mandatory="No"/>
<ItemRef ItemOID="IT.SUPPDS.QEVAL" OrderNumber="10" Mandatory="No"/>
<def:leaf ID="LF.SUPPDS" xlink:href="suppds.xpt"><def:title>suppds.xpt</def:title></def:leaf>
</ItemGroupDef>
<ItemGroupDef OID="IG.CE" Name="CE" Repeating="Yes" IsReferenceData="No" SASDatasetName="CE" Purpose="Tabulation" def:Structure="One record per clinical event per subject" def:Class="EVENTS" def:ArchiveLocationID="LF.CE">
<Description><TranslatedText xml:lang="en">Clinical Events</TranslatedText></Description>
<ItemRef ItemOID="IT.CE.STUDYID" OrderNumber="1" Mandatory="Yes" KeySequence="1"/>
<ItemRef ItemOID="IT.CE.DOMAIN" OrderNumber="2" Mandatory="Yes"/>
<ItemRef ItemOID="IT.CE.USUBJID" OrderNumber="3" Mandatory="Yes" KeySequence="2"/>
<ItemRef ItemOID="IT.CE.CESEQ" OrderNumber="4" Mandatory="No"/>
<ItemRef ItemOID="IT.CE.CETERM" OrderNumber="5" Mandatory="No"/>
<ItemRef ItemOID="IT.CE.CEDECOD" OrderNumber="6" Mandatory="No" KeySequence="3"/>
<ItemRef ItemOID="IT.CE.CECAT" OrderNumber="7" Mandatory="No"/>
<ItemRef ItemOID="IT.CE.VISITNUM" OrderNumber="8" Mandatory="No"/>
<ItemRef ItemOID="IT.CE.VISIT" OrderNumber="9" Mandatory="No"/>
<ItemRef ItemOID="IT.CE.EPOCH" OrderNumber="10" Mandatory="No"/>
<ItemRef ItemOID="IT.CE.CESTDTC" OrderNumber="11" Mandatory="No" KeySequence="4"/>
<ItemRef ItemOID="IT.CE.CESTDY" OrderNumber="12" Mandatory="No"/>
<def:leaf ID="LF.CE" xlink:href="ce.xpt"><def:title>ce.xpt</def:title></def:leaf>
</ItemGroupDef>
<ItemGroupDef OID="IG.VS" Name="VS" Repeating="Yes" IsReferenceData="No" SASDatasetName="VS" Purpose="Tabulation" def:Structure="One record per vital sign measurement per visit per subject" def:Class="FINDINGS" def:ArchiveLocationID="LF.VS">
<Description><TranslatedText xml:lang="en">Vital Signs</TranslatedText></Description>
<ItemRef ItemOID="IT.VS.STUDYID" OrderNumber="1" Mandatory="Yes" KeySequence="1"/>
<ItemRef ItemOID="IT.VS.DOMAIN" OrderNumber="2" Mandatory="Yes"/>
<ItemRef ItemOID="IT.VS.USUBJID" OrderNumber="3" Mandatory="Yes" KeySequence="2"/>
<ItemRef ItemOID="IT.VS.VSSEQ" OrderNumber="4" Mandatory="No"/>
<ItemRef ItemOID="IT.VS.VSTESTCD" OrderNumber="5" Mandatory="No" KeySequence="3"/>
<ItemRef ItemOID="IT.VS.VSTEST" OrderNumber="6" Mandatory="No"/>
<ItemRef ItemOID="IT.VS.VSPOS" OrderNumber="7" Mandatory="No"/>
<ItemRef ItemOID="IT.VS.VSORRES" OrderNumber="8" Mandatory="No"/>
<ItemRef ItemOID="IT.VS.VSORRESU" OrderNumber="9" Mandatory="No"/>
<ItemRef ItemOID="IT.VS.VSSTRESC" OrderNumber="10" Mandatory="No"/>
<ItemRef ItemOID="IT.VS.VSSTRESN" OrderNumber="11" Mandatory="No"/>
<ItemRef ItemOID="IT.VS.VSSTRESU" OrderNumber="12" Mandatory="No"/>
<ItemRef ItemOID="IT.VS.VSBLFL" OrderNumber="13" Mandatory="No"/>
<ItemRef ItemOID="IT.VS.VISITNUM" OrderNumber="14" Mandatory="No" KeySequence="4"/>
<ItemRef ItemOID="IT.VS.VISIT" OrderNumber="15" Mandatory="No"/>
<ItemRef ItemOID="IT.VS.EPOCH" OrderNumber="16" Mandatory="No"/>
<ItemRef ItemOID="IT.VS.VSDTC" OrderNumber="17" Mandatory="No"/>
<ItemRef ItemOID="IT.VS.VSDY" OrderNumber="18" Mandatory="No"/>
<def:leaf ID="LF.VS" xlink:href="vs.xpt"><def:title>vs.xpt</def:title></def:leaf>
</ItemGroupDef>
<ItemGroupDef OID="IG.LB" Name="LB" Repeating="Yes" IsReferenceData="No" SASDatasetName="LB" Purpose="Tabulation" def:Structure="One record per lab test per visit per subject" def:Class="FINDINGS" def:ArchiveLocationID="LF.LB">
<Description><TranslatedText xml:lang="en">Laboratory Test Results</TranslatedText></Description>
<ItemRef ItemOID="IT.LB.STUDYID" OrderNumber="1" Mandatory="Yes" KeySequence="1"/>
<ItemRef ItemOID="IT.LB.DOMAIN" OrderNumber="2" Mandatory="Yes"/>
<ItemRef ItemOID="IT.LB.USUBJID" OrderNumber="3" Mandatory="Yes" KeySequence="2"/>
<ItemRef ItemOID="IT.LB.LBSEQ" OrderNumber="4" Mandatory="No"/>
<ItemRef ItemOID="IT.LB.LBCAT" OrderNumber="5" Mandatory="No"/>
<ItemRef ItemOID="IT.LB.LBTESTCD" OrderNumber="6" Mandatory="No" KeySequence="3"/>
<ItemRef ItemOID="IT.LB.LBTEST" OrderNumber="7" Mandatory="No"/>
<ItemRef ItemOID="IT.LB.LBORRES" OrderNumber="8" Mandatory="No"/>
<ItemRef ItemOID="IT.LB.LBORRESU" OrderNumber="9" Mandatory="No"/>
<ItemRef ItemOID="IT.LB.LBORNRLO" OrderNumber="10" Mandatory="No"/>
<ItemRef ItemOID="IT.LB.LBORNRHI" OrderNumber="11" Mandatory="No"/>
<ItemRef ItemOID="IT.LB.LBSTRESC" OrderNumber="12" Mandatory="No"/>
<ItemRef ItemOID="IT.LB.LBSTRESN" OrderNumber="13" Mandatory="No"/>
<ItemRef ItemOID="IT.LB.LBSTRESU" OrderNumber="14" Mandatory="No"/>
<ItemRef ItemOID="IT.LB.LBSTNRLO" OrderNumber="15" Mandatory="No"/>
<ItemRef ItemOID="IT.LB.LBSTNRHI" OrderNumber="16" Mandatory="No"/>
<ItemRef ItemOID="IT.LB.LBNRIND" OrderNumber="17" Mandatory="No"/>
<ItemRef ItemOID="IT.LB.LBSPEC" OrderNumber="18" Mandatory="No"/>
<ItemRef ItemOID="IT.LB.LBBLFL" OrderNumber="19" Mandatory="No"/>
<ItemRef ItemOID="IT.LB.VISITNUM" OrderNumber="20" Mandatory="No" KeySequence="4"/>
<ItemRef ItemOID="IT.LB.VISIT" OrderNumber="21" Mandatory="No"/>
<ItemRef ItemOID="IT.LB.EPOCH" OrderNumber="22" Mandatory="No"/>
<ItemRef ItemOID="IT.LB.LBDTC" OrderNumber="23" Mandatory="No"/>
<ItemRef ItemOID="IT.LB.LBDY" OrderNumber="24" Mandatory="No"/>
<def:leaf ID="LF.LB" xlink:href="lb.xpt"><def:title>lb.xpt</def:title></def:leaf>
</ItemGroupDef>
<ItemGroupDef OID="IG.EG" Name="EG" Repeating="Yes" IsReferenceData="No" SASDatasetName="EG" Purpose="Tabulation" def:Structure="One record per ECG measurement per visit per subject" def:Class="FINDINGS" def:ArchiveLocationID="LF.EG">
<Description><TranslatedText xml:lang="en">ECG Test Results</TranslatedText></Description>
<ItemRef ItemOID="IT.EG.STUDYID" OrderNumber="1" Mandatory="Yes" KeySequence="1"/>
<ItemRef ItemOID="IT.EG.DOMAIN" OrderNumber="2" Mandatory="Yes"/>
<ItemRef ItemOID="IT.EG.USUBJID" OrderNumber="3" Mandatory="Yes" KeySequence="2"/>
<ItemRef ItemOID="IT.EG.EGSEQ" OrderNumber="4" Mandatory="No"/>
<ItemRef ItemOID="IT.EG.EGTESTCD" OrderNumber="5" Mandatory="No" KeySequence="3"/>
<ItemRef ItemOID="IT.EG.EGTEST" OrderNumber="6" Mandatory="No"/>
<ItemRef ItemOID="IT.EG.EGORRES" OrderNumber="7" Mandatory="No"/>
<ItemRef ItemOID="IT.EG.EGORRESU" OrderNumber="8" Mandatory="No"/>
<ItemRef ItemOID="IT.EG.EGSTRESC" OrderNumber="9" Mandatory="No"/>
<ItemRef ItemOID="IT.EG.EGSTRESN" OrderNumber="10" Mandatory="No"/>
<ItemRef ItemOID="IT.EG.EGSTRESU" OrderNumber="11" Mandatory="No"/>
<ItemRef ItemOID="IT.EG.EGBLFL" OrderNumber="12" Mandatory="No"/>
<ItemRef ItemOID="IT.EG.VISITNUM" OrderNumber="13" Mandatory="No" KeySequence="4"/>
<ItemRef ItemOID="IT.EG.VISIT" OrderNumber="14" Mandatory="No"/>
<ItemRef ItemOID="IT.EG.EPOCH" OrderNumber="15" Mandatory="No"/>
<ItemRef ItemOID="IT.EG.EGDTC" OrderNumber="16" Mandatory="No"/>
<ItemRef ItemOID="IT.EG.EGDY" OrderNumber="17" Mandatory="No"/>
<def:leaf ID="LF.EG" xlink:href="eg.xpt"><def:title>eg.xpt</def:title></def:leaf>
</ItemGroupDef>
<ItemGroupDef OID="IG.IS" Name="IS" Repeating="Yes" IsReferenceData="No" SASDatasetName="IS" Purpose="Tabulation" def:Structure="One record per immunogenicity test per visit per subject" def:Class="FINDINGS" def:ArchiveLocationID="LF.IS">
<Description><TranslatedText xml:lang="en">Immunogenicity Specimen Assessments</TranslatedText></Description>
<ItemRef ItemOID="IT.IS.STUDYID" OrderNumber="1" Mandatory="Yes" KeySequence="1"/>
<ItemRef ItemOID="IT.IS.DOMAIN" OrderNumber="2" Mandatory="Yes"/>
<ItemRef ItemOID="IT.IS.USUBJID" OrderNumber="3" Mandatory="Yes" KeySequence="2"/>
<ItemRef ItemOID="IT.IS.ISSEQ" OrderNumber="4" Mandatory="No"/>
<ItemRef ItemOID="IT.IS.ISCAT" OrderNumber="5" Mandatory="No"/>
<ItemRef ItemOID="IT.IS.ISTESTCD" OrderNumber="6" Mandatory="No" KeySequence="3"/>
<ItemRef ItemOID="IT.IS.ISTEST" OrderNumber="7" Mandatory="No"/>
<ItemRef ItemOID="IT.IS.ISORRES" OrderNumber="8" Mandatory="No"/>
<ItemRef ItemOID="IT.IS.ISORRESU" OrderNumber="9" Mandatory="No"/>
<ItemRef ItemOID="IT.IS.ISSTRESC" OrderNumber="10" Mandatory="No"/>
<ItemRef ItemOID="IT.IS.ISSTRESN" OrderNumber="11" Mandatory="No"/>
<ItemRef ItemOID="IT.IS.ISSTRESU" OrderNumber="12" Mandatory="No"/>
<ItemRef ItemOID="IT.IS.ISSPEC" OrderNumber="13" Mandatory="No"/>
<ItemRef ItemOID="IT.IS.VISITNUM" OrderNumber="14" Mandatory="No" KeySequence="4"/>
<ItemRef ItemOID="IT.IS.VISIT" OrderNumber="15" Mandatory="No"/>
<ItemRef ItemOID="IT.IS.EPOCH" OrderNumber="16" Mandatory="No"/>
<ItemRef ItemOID="IT.IS.ISDTC" OrderNumber="17" Mandatory="No"/>
<ItemRef ItemOID="IT.IS.ISDY" OrderNumber="18" Mandatory="No"/>
<def:leaf ID="LF.IS" xlink:href="is.xpt"><def:title>is.xpt</def:title></def:leaf>
</ItemGroupDef>
<ItemGroupDef OID="IG.QS" Name="QS" Repeating="Yes" IsReferenceData="No" SASDatasetName="QS" Purpose="Tabulation" def:Structure="One record per questionnaire item per visit per subject" def:Class="FINDINGS" def:ArchiveLocationID="LF.QS">
<Description><TranslatedText xml:lang="en">Questionnaires</TranslatedText></Description>
<ItemRef ItemOID="IT.QS.STUDYID" OrderNumber="1" Mandatory="Yes" KeySequence="1"/>
<ItemRef ItemOID="IT.QS.DOMAIN" OrderNumber="2" Mandatory="Yes"/>
<ItemRef ItemOID="IT.QS.USUBJID" OrderNumber="3" Mandatory="Yes" KeySequence="2"/>
<ItemRef ItemOID="IT.QS.QSSEQ" OrderNumber="4" Mandatory="No"/>
<ItemRef ItemOID="IT.QS.QSCAT" OrderNumber="5" Mandatory="No"/>
<ItemRef ItemOID="IT.QS.QSTESTCD" OrderNumber="6" Mandatory="No" KeySequence="3"/>
<ItemRef ItemOID="IT.QS.QSTEST" OrderNumber="7" Mandatory="No"/>
<ItemRef ItemOID="IT.QS.QSORRES" OrderNumber="8" Mandatory="No"/>
<ItemRef ItemOID="IT.QS.QSSTRESC" OrderNumber="9" Mandatory="No"/>
<ItemRef ItemOID="IT.QS.QSSTRESN" OrderNumber="10" Mandatory="No"/>
<ItemRef ItemOID="IT.QS.QSBLFL" OrderNumber="11" Mandatory="No"/>
<ItemRef ItemOID="IT.QS.VISITNUM" OrderNumber="12" Mandatory="No" KeySequence="4"/>
<ItemRef ItemOID="IT.QS.VISIT" OrderNumber="13" Mandatory="No"/>
<ItemRef ItemOID="IT.QS.EPOCH" OrderNumber="14" Mandatory="No"/>
<ItemRef ItemOID="IT.QS.QSDTC" OrderNumber="15" Mandatory="No"/>
<ItemRef ItemOID="IT.QS.QSDY" OrderNumber="16" Mandatory="No"/>
<def:leaf ID="LF.QS" xlink:href="qs.xpt"><def:title>qs.xpt</def:title></def:leaf>
</ItemGroupDef>
<ItemGroupDef OID="IG.FT" Name="FT" Repeating="Yes" IsReferenceData="No" SASDatasetName="FT" Purpose="Tabulation" def:Structure="One record per functional test per visit per subject" def:Class="FINDINGS" def:ArchiveLocationID="LF.FT">
<Description><TranslatedText xml:lang="en">Functional Tests</TranslatedText></Description>
<ItemRef ItemOID="IT.FT.STUDYID" OrderNumber="1" Mandatory="Yes" KeySequence="1"/>
<ItemRef ItemOID="IT.FT.DOMAIN" OrderNumber="2" Mandatory="Yes"/>
<ItemRef ItemOID="IT.FT.USUBJID" OrderNumber="3" Mandatory="Yes" KeySequence="2"/>
<ItemRef ItemOID="IT.FT.FTSEQ" OrderNumber="4" Mandatory="No"/>
<ItemRef ItemOID="IT.FT.FTCAT" OrderNumber="5" Mandatory="No"/>
<ItemRef ItemOID="IT.FT.FTTESTCD" OrderNumber="6" Mandatory="No" KeySequence="3"/>
<ItemRef ItemOID="IT.FT.FTTEST" OrderNumber="7" Mandatory="No"/>
<ItemRef ItemOID="IT.FT.FTORRES" OrderNumber="8" Mandatory="No"/>
<ItemRef ItemOID="IT.FT.FTORRESU" OrderNumber="9" Mandatory="No"/>
<ItemRef ItemOID="IT.FT.FTSTRESC" OrderNumber="10" Mandatory="No"/>
<ItemRef ItemOID="IT.FT.FTSTRESN" OrderNumber="11" Mandatory="No"/>
<ItemRef ItemOID="IT.FT.FTSTRESU" OrderNumber="12" Mandatory="No"/>
<ItemRef ItemOID="IT.FT.FTBLFL" OrderNumber="13" Mandatory="No"/>
<ItemRef ItemOID="IT.FT.VISITNUM" OrderNumber="14" Mandatory="No" KeySequence="4"/>
<ItemRef ItemOID="IT.FT.VISIT" OrderNumber="15" Mandatory="No"/>
<ItemRef ItemOID="IT.FT.EPOCH" OrderNumber="16" Mandatory="No"/>
<ItemRef ItemOID="IT.FT.FTDTC" OrderNumber="17" Mandatory="No"/>
<ItemRef ItemOID="IT.FT.FTDY" OrderNumber="18" Mandatory="No"/>
<def:leaf ID="LF.FT" xlink:href="ft.xpt"><def:title>ft.xpt</def:title></def:leaf>
</ItemGroupDef>
<ItemGroupDef OID="IG.ZE" Name="ZE" Repeating="Yes" IsReferenceData="No" SASDatasetName="ZE" Purpose="Tabulation" def:Structure="One record per echo measurement per reader per visit per subject" def:Class="FINDINGS" def:ArchiveLocationID="LF.ZE">
<Description><TranslatedText xml:lang="en">Echocardiography (Custom)</TranslatedText></Description>
<ItemRef ItemOID="IT.ZE.STUDYID" OrderNumber="1" Mandatory="Yes" KeySequence="1"/>
<ItemRef ItemOID="IT.ZE.DOMAIN" OrderNumber="2" Mandatory="Yes"/>
<ItemRef ItemOID="IT.ZE.USUBJID" OrderNumber="3" Mandatory="Yes" KeySequence="2"/>
<ItemRef ItemOID="IT.ZE.ZESEQ" OrderNumber="4" Mandatory="No"/>
<ItemRef ItemOID="IT.ZE.ZECAT" OrderNumber="5" Mandatory="No"/>
<ItemRef ItemOID="IT.ZE.ZETESTCD" OrderNumber="6" Mandatory="No" KeySequence="3"/>
<ItemRef ItemOID="IT.ZE.ZETEST" OrderNumber="7" Mandatory="No"/>
<ItemRef ItemOID="IT.ZE.ZEORRES" OrderNumber="8" Mandatory="No"/>
<ItemRef ItemOID="IT.ZE.ZEORRESU" OrderNumber="9" Mandatory="No"/>
<ItemRef ItemOID="IT.ZE.ZESTRESC" OrderNumber="10" Mandatory="No"/>
<ItemRef ItemOID="IT.ZE.ZESTRESN" OrderNumber="11" Mandatory="No"/>
<ItemRef ItemOID="IT.ZE.ZESTRESU" OrderNumber="12" Mandatory="No"/>
<ItemRef ItemOID="IT.ZE.ZEEVAL" OrderNumber="13" Mandatory="No" KeySequence="4"/>
<ItemRef ItemOID="IT.ZE.ZEBLFL" OrderNumber="14" Mandatory="No"/>
<ItemRef ItemOID="IT.ZE.VISITNUM" OrderNumber="15" Mandatory="No" KeySequence="5"/>
<ItemRef ItemOID="IT.ZE.VISIT" OrderNumber="16" Mandatory="No"/>
<ItemRef ItemOID="IT.ZE.EPOCH" OrderNumber="17" Mandatory="No"/>
<ItemRef ItemOID="IT.ZE.ZEDTC" OrderNumber="18" Mandatory="No"/>
<ItemRef ItemOID="IT.ZE.ZEDY" OrderNumber="19" Mandatory="No"/>
<def:leaf ID="LF.ZE" xlink:href="ze.xpt"><def:title>ze.xpt</def:title></def:leaf>
</ItemGroupDef>
<ItemGroupDef OID="IG.PE" Name="PE" Repeating="Yes" IsReferenceData="No" SASDatasetName="PE" Purpose="Tabulation" def:Structure="One record per body-system exam per visit per subject" def:Class="FINDINGS" def:ArchiveLocationID="LF.PE">
<Description><TranslatedText xml:lang="en">Physical Examination (Custom)</TranslatedText></Description>
<ItemRef ItemOID="IT.PE.STUDYID" OrderNumber="1" Mandatory="Yes" KeySequence="1"/>
<ItemRef ItemOID="IT.PE.DOMAIN" OrderNumber="2" Mandatory="Yes"/>
<ItemRef ItemOID="IT.PE.USUBJID" OrderNumber="3" Mandatory="Yes" KeySequence="2"/>
<ItemRef ItemOID="IT.PE.PESEQ" OrderNumber="4" Mandatory="No"/>
<ItemRef ItemOID="IT.PE.PETESTCD" OrderNumber="5" Mandatory="No" KeySequence="3"/>
<ItemRef ItemOID="IT.PE.PETEST" OrderNumber="6" Mandatory="No"/>
<ItemRef ItemOID="IT.PE.PEORRES" OrderNumber="7" Mandatory="No"/>
<ItemRef ItemOID="IT.PE.PESTRESC" OrderNumber="8" Mandatory="No"/>
<ItemRef ItemOID="IT.PE.VISITNUM" OrderNumber="9" Mandatory="No" KeySequence="4"/>
<ItemRef ItemOID="IT.PE.VISIT" OrderNumber="10" Mandatory="No"/>
<ItemRef ItemOID="IT.PE.EPOCH" OrderNumber="11" Mandatory="No"/>
<ItemRef ItemOID="IT.PE.PEDTC" OrderNumber="12" Mandatory="No"/>
<ItemRef ItemOID="IT.PE.PEDY" OrderNumber="13" Mandatory="No"/>
<def:leaf ID="LF.PE" xlink:href="pe.xpt"><def:title>pe.xpt</def:title></def:leaf>
</ItemGroupDef>
<ItemGroupDef OID="IG.SUPPPE" Name="SUPPPE" Repeating="Yes" IsReferenceData="No" SASDatasetName="SUPPPE" Purpose="Tabulation" def:Structure="One record per IDVAR, IDVARVAL, and QNAM value per subject" def:Class="RELATIONSHIP" def:ArchiveLocationID="LF.SUPPPE">
<Description><TranslatedText xml:lang="en">Supplemental Qualifiers for PE</TranslatedText></Description>
<ItemRef ItemOID="IT.SUPPPE.STUDYID" OrderNumber="1" Mandatory="Yes" KeySequence="1"/>
<ItemRef ItemOID="IT.SUPPPE.RDOMAIN" OrderNumber="2" Mandatory="No" KeySequence="2"/>
<ItemRef ItemOID="IT.SUPPPE.USUBJID" OrderNumber="3" Mandatory="Yes" KeySequence="3"/>
<ItemRef ItemOID="IT.SUPPPE.IDVAR" OrderNumber="4" Mandatory="No" KeySequence="4"/>
<ItemRef ItemOID="IT.SUPPPE.IDVARVAL" OrderNumber="5" Mandatory="No" KeySequence="5"/>
<ItemRef ItemOID="IT.SUPPPE.QNAM" OrderNumber="6" Mandatory="No" KeySequence="6"/>
<ItemRef ItemOID="IT.SUPPPE.QLABEL" OrderNumber="7" Mandatory="No"/>
<ItemRef ItemOID="IT.SUPPPE.QVAL" OrderNumber="8" Mandatory="No"/>
<ItemRef ItemOID="IT.SUPPPE.QORIG" OrderNumber="9" Mandatory="No"/>
<ItemRef ItemOID="IT.SUPPPE.QEVAL" OrderNumber="10" Mandatory="No"/>
<def:leaf ID="LF.SUPPPE" xlink:href="supppe.xpt"><def:title>supppe.xpt</def:title></def:leaf>
</ItemGroupDef>
<ItemGroupDef OID="IG.RELREC" Name="RELREC" Repeating="Yes" IsReferenceData="No" SASDatasetName="RELREC" Purpose="Tabulation" def:Structure="One record per related record per relationship" def:Class="RELATIONSHIP" def:ArchiveLocationID="LF.RELREC">
<Description><TranslatedText xml:lang="en">Related Records</TranslatedText></Description>
<ItemRef ItemOID="IT.RELREC.STUDYID" OrderNumber="1" Mandatory="Yes" KeySequence="1"/>
<ItemRef ItemOID="IT.RELREC.RDOMAIN" OrderNumber="2" Mandatory="No" KeySequence="2"/>
<ItemRef ItemOID="IT.RELREC.USUBJID" OrderNumber="3" Mandatory="Yes" KeySequence="3"/>
<ItemRef ItemOID="IT.RELREC.IDVAR" OrderNumber="4" Mandatory="No" KeySequence="4"/>
<ItemRef ItemOID="IT.RELREC.IDVARVAL" OrderNumber="5" Mandatory="No" KeySequence="5"/>
<ItemRef ItemOID="IT.RELREC.RELTYPE" OrderNumber="6" Mandatory="No"/>
<ItemRef ItemOID="IT.RELREC.RELID" OrderNumber="7" Mandatory="No"/>
<def:leaf ID="LF.RELREC" xlink:href="relrec.xpt"><def:title>relrec.xpt</def:title></def:leaf>
</ItemGroupDef>
<ItemDef OID="IT.TS.STUDYID" Name="STUDYID" DataType="text" Length="14">
<Description><TranslatedText xml:lang="en">Study Identifier</TranslatedText></Description>
<def:Origin Type="Assigned"/>
</ItemDef>
<ItemDef OID="IT.TS.DOMAIN" Name="DOMAIN" DataType="text" Length="2">
<Description><TranslatedText xml:lang="en">Domain Abbreviation</TranslatedText></Description>
<def:Origin Type="Assigned"/>
</ItemDef>
<ItemDef OID="IT.TS.TSSEQ" Name="TSSEQ" DataType="integer">
<Description><TranslatedText xml:lang="en">Sequence Number</TranslatedText></Description>
<def:Origin Type="Derived"/>
</ItemDef>
<ItemDef OID="IT.TS.TSPARMCD" Name="TSPARMCD" DataType="text" Length="7">
<Description><TranslatedText xml:lang="en">Trial Summary Parameter Short Name</TranslatedText></Description>
<def:Origin Type="Collected"/>
</ItemDef>
<ItemDef OID="IT.TS.TSPARM" Name="TSPARM" DataType="text" Length="36">
<Description><TranslatedText xml:lang="en">Trial Summary Parameter</TranslatedText></Description>
<def:Origin Type="Collected"/>
</ItemDef>
<ItemDef OID="IT.TS.TSVAL" Name="TSVAL" DataType="text" Length="200">
<Description><TranslatedText xml:lang="en">Parameter Value</TranslatedText></Description>
<def:Origin Type="Collected"/>
</ItemDef>
<ItemDef OID="IT.TS.TSVAL1" Name="TSVAL1" DataType="text" Length="39">
<Description><TranslatedText xml:lang="en">TSVAL1</TranslatedText></Description>
<def:Origin Type="Collected"/>
</ItemDef>
<ItemDef OID="IT.TA.STUDYID" Name="STUDYID" DataType="text" Length="14">
<Description><TranslatedText xml:lang="en">Study Identifier</TranslatedText></Description>
<def:Origin Type="Assigned"/>
</ItemDef>
<ItemDef OID="IT.TA.DOMAIN" Name="DOMAIN" DataType="text" Length="2">
<Description><TranslatedText xml:lang="en">Domain Abbreviation</TranslatedText></Description>
<def:Origin Type="Assigned"/>
</ItemDef>
<ItemDef OID="IT.TA.ARMCD" Name="ARMCD" DataType="text" Length="2">
<Description><TranslatedText xml:lang="en">Planned Arm Code</TranslatedText></Description>
<def:Origin Type="Assigned"/>
</ItemDef>
<ItemDef OID="IT.TA.ARM" Name="ARM" DataType="text" Length="15">
<Description><TranslatedText xml:lang="en">Description of Planned Arm</TranslatedText></Description>
<def:Origin Type="Assigned"/>
</ItemDef>
<ItemDef OID="IT.TA.TAETORD" Name="TAETORD" DataType="integer">
<Description><TranslatedText xml:lang="en">Planned Order of Element within Arm</TranslatedText></Description>
<def:Origin Type="Collected"/>
</ItemDef>
<ItemDef OID="IT.TA.ETCD" Name="ETCD" DataType="text" Length="4">
<Description><TranslatedText xml:lang="en">Element Code</TranslatedText></Description>
<def:Origin Type="Assigned"/>
</ItemDef>
<ItemDef OID="IT.TA.ELEMENT" Name="ELEMENT" DataType="text" Length="19">
<Description><TranslatedText xml:lang="en">Description of Element</TranslatedText></Description>
<def:Origin Type="Assigned"/>
</ItemDef>
<ItemDef OID="IT.TA.TABRANCH" Name="TABRANCH" DataType="text" Length="1">
<Description><TranslatedText xml:lang="en">Branch</TranslatedText></Description>
<def:Origin Type="Collected"/>
</ItemDef>
<ItemDef OID="IT.TA.TATRANS" Name="TATRANS" DataType="text" Length="1">
<Description><TranslatedText xml:lang="en">Transition Rule</TranslatedText></Description>
<def:Origin Type="Collected"/>
</ItemDef>
<ItemDef OID="IT.TA.EPOCH" Name="EPOCH" DataType="text" Length="19">
<Description><TranslatedText xml:lang="en">Epoch</TranslatedText></Description>
<def:Origin Type="Assigned"/>
</ItemDef>
<ItemDef OID="IT.TE.STUDYID" Name="STUDYID" DataType="text" Length="14">
<Description><TranslatedText xml:lang="en">Study Identifier</TranslatedText></Description>
<def:Origin Type="Assigned"/>
</ItemDef>
<ItemDef OID="IT.TE.DOMAIN" Name="DOMAIN" DataType="text" Length="2">
<Description><TranslatedText xml:lang="en">Domain Abbreviation</TranslatedText></Description>
<def:Origin Type="Assigned"/>
</ItemDef>
<ItemDef OID="IT.TE.ETCD" Name="ETCD" DataType="text" Length="4">
<Description><TranslatedText xml:lang="en">Element Code</TranslatedText></Description>
<def:Origin Type="Assigned"/>
</ItemDef>
<ItemDef OID="IT.TE.ELEMENT" Name="ELEMENT" DataType="text" Length="19">
<Description><TranslatedText xml:lang="en">Description of Element</TranslatedText></Description>
<def:Origin Type="Assigned"/>
</ItemDef>
<ItemDef OID="IT.TE.TESTRL" Name="TESTRL" DataType="text" Length="16">
<Description><TranslatedText xml:lang="en">Rule for Start of Element</TranslatedText></Description>
<def:Origin Type="Collected"/>
</ItemDef>
<ItemDef OID="IT.TE.TEENRL" Name="TEENRL" DataType="text" Length="37">
<Description><TranslatedText xml:lang="en">Rule for End of Element</TranslatedText></Description>
<def:Origin Type="Collected"/>
</ItemDef>
<ItemDef OID="IT.TV.STUDYID" Name="STUDYID" DataType="text" Length="14">
<Description><TranslatedText xml:lang="en">Study Identifier</TranslatedText></Description>
<def:Origin Type="Assigned"/>
</ItemDef>
<ItemDef OID="IT.TV.DOMAIN" Name="DOMAIN" DataType="text" Length="2">
<Description><TranslatedText xml:lang="en">Domain Abbreviation</TranslatedText></Description>
<def:Origin Type="Assigned"/>
</ItemDef>
<ItemDef OID="IT.TV.VISITNUM" Name="VISITNUM" DataType="integer">
<Description><TranslatedText xml:lang="en">Visit Number</TranslatedText></Description>
<def:Origin Type="Assigned"/>
</ItemDef>
<ItemDef OID="IT.TV.VISIT" Name="VISIT" DataType="text" Length="16">
<Description><TranslatedText xml:lang="en">Visit Name</TranslatedText></Description>
<def:Origin Type="Assigned"/>
</ItemDef>
<ItemDef OID="IT.TV.VISITDY" Name="VISITDY" DataType="integer">
<Description><TranslatedText xml:lang="en">Planned Study Day of Visit</TranslatedText></Description>
<def:Origin Type="Assigned"/>
</ItemDef>
<ItemDef OID="IT.TV.ARMCD" Name="ARMCD" DataType="text" Length="1">
<Description><TranslatedText xml:lang="en">Planned Arm Code</TranslatedText></Description>
<def:Origin Type="Assigned"/>
</ItemDef>
<ItemDef OID="IT.TV.ARM" Name="ARM" DataType="text" Length="1">
<Description><TranslatedText xml:lang="en">Description of Planned Arm</TranslatedText></Description>
<def:Origin Type="Assigned"/>
</ItemDef>
<ItemDef OID="IT.TV.TVSTRL" Name="TVSTRL" DataType="text" Length="33">
<Description><TranslatedText xml:lang="en">Visit Start Rule</TranslatedText></Description>
<def:Origin Type="Collected"/>
</ItemDef>
<ItemDef OID="IT.TV.TVENRL" Name="TVENRL" DataType="text" Length="1">
<Description><TranslatedText xml:lang="en">Visit End Rule</TranslatedText></Description>
<def:Origin Type="Collected"/>
</ItemDef>
<ItemDef OID="IT.TI.STUDYID" Name="STUDYID" DataType="text" Length="14">
<Description><TranslatedText xml:lang="en">Study Identifier</TranslatedText></Description>
<def:Origin Type="Assigned"/>
</ItemDef>
<ItemDef OID="IT.TI.DOMAIN" Name="DOMAIN" DataType="text" Length="2">
<Description><TranslatedText xml:lang="en">Domain Abbreviation</TranslatedText></Description>
<def:Origin Type="Assigned"/>
</ItemDef>
<ItemDef OID="IT.TI.IETESTCD" Name="IETESTCD" DataType="text" Length="6">
<Description><TranslatedText xml:lang="en">IETESTCD</TranslatedText></Description>
<def:Origin Type="Collected"/>
</ItemDef>
<ItemDef OID="IT.TI.IETEST" Name="IETEST" DataType="text" Length="122">
<Description><TranslatedText xml:lang="en">Inclusion/Exclusion Criterion</TranslatedText></Description>
<def:Origin Type="Collected"/>
</ItemDef>
<ItemDef OID="IT.TI.IECAT" Name="IECAT" DataType="text" Length="9">
<Description><TranslatedText xml:lang="en">Inclusion/Exclusion Category</TranslatedText></Description>
<def:Origin Type="Collected"/>
</ItemDef>
<ItemDef OID="IT.DM.STUDYID" Name="STUDYID" DataType="text" Length="14">
<Description><TranslatedText xml:lang="en">Study Identifier</TranslatedText></Description>
<def:Origin Type="Assigned"/>
</ItemDef>
<ItemDef OID="IT.DM.DOMAIN" Name="DOMAIN" DataType="text" Length="2">
<Description><TranslatedText xml:lang="en">Domain Abbreviation</TranslatedText></Description>
<def:Origin Type="Assigned"/>
</ItemDef>
<ItemDef OID="IT.DM.USUBJID" Name="USUBJID" DataType="text" Length="23">
<Description><TranslatedText xml:lang="en">Unique Subject Identifier</TranslatedText></Description>
<def:Origin Type="Assigned"/>
</ItemDef>
<ItemDef OID="IT.DM.SUBJID" Name="SUBJID" DataType="text" Length="4">
<Description><TranslatedText xml:lang="en">Subject Identifier for the Study</TranslatedText></Description>
<def:Origin Type="Collected"/>
</ItemDef>
<ItemDef OID="IT.DM.RFSTDTC" Name="RFSTDTC" DataType="datetime">
<Description><TranslatedText xml:lang="en">Subject Reference Start Date/Time</TranslatedText></Description>
<def:Origin Type="Collected"/>
</ItemDef>
<ItemDef OID="IT.DM.RFENDTC" Name="RFENDTC" DataType="datetime">
<Description><TranslatedText xml:lang="en">Subject Reference End Date/Time</TranslatedText></Description>
<def:Origin Type="Collected"/>
</ItemDef>
<ItemDef OID="IT.DM.RFXSTDTC" Name="RFXSTDTC" DataType="datetime">
<Description><TranslatedText xml:lang="en">Date/Time of First Study Treatment</TranslatedText></Description>
<def:Origin Type="Collected"/>
</ItemDef>
<ItemDef OID="IT.DM.RFXENDTC" Name="RFXENDTC" DataType="datetime">
<Description><TranslatedText xml:lang="en">Date/Time of Last Study Treatment</TranslatedText></Description>
<def:Origin Type="Collected"/>
</ItemDef>
<ItemDef OID="IT.DM.RFICDTC" Name="RFICDTC" DataType="datetime">
<Description><TranslatedText xml:lang="en">Date/Time of Informed Consent</TranslatedText></Description>
<def:Origin Type="Collected"/>
</ItemDef>
<ItemDef OID="IT.DM.RFPENDTC" Name="RFPENDTC" DataType="datetime">
<Description><TranslatedText xml:lang="en">Date/Time of End of Participation</TranslatedText></Description>
<def:Origin Type="Collected"/>
</ItemDef>
<ItemDef OID="IT.DM.DTHDTC" Name="DTHDTC" DataType="datetime">
<Description><TranslatedText xml:lang="en">Date/Time of Death</TranslatedText></Description>
<def:Origin Type="Collected"/>
</ItemDef>
<ItemDef OID="IT.DM.DTHFL" Name="DTHFL" DataType="text" Length="1">
<Description><TranslatedText xml:lang="en">Subject Death Flag</TranslatedText></Description>
<def:Origin Type="Collected"/>
</ItemDef>
<ItemDef OID="IT.DM.SITEID" Name="SITEID" DataType="text" Length="3">
<Description><TranslatedText xml:lang="en">Study Site Identifier</TranslatedText></Description>
<def:Origin Type="Collected"/>
</ItemDef>
<ItemDef OID="IT.DM.BRTHDTC" Name="BRTHDTC" DataType="datetime">
<Description><TranslatedText xml:lang="en">Date/Time of Birth</TranslatedText></Description>
<def:Origin Type="Collected"/>
</ItemDef>
<ItemDef OID="IT.DM.AGE" Name="AGE" DataType="integer">
<Description><TranslatedText xml:lang="en">Age</TranslatedText></Description>
<def:Origin Type="Collected"/>
</ItemDef>
<ItemDef OID="IT.DM.AGEU" Name="AGEU" DataType="text" Length="5">
<Description><TranslatedText xml:lang="en">Age Units</TranslatedText></Description>
<def:Origin Type="Collected"/>
</ItemDef>
<ItemDef OID="IT.DM.SEX" Name="SEX" DataType="text" Length="1">
<Description><TranslatedText xml:lang="en">Sex</TranslatedText></Description>
<CodeListRef CodeListOID="CL.SEX"/>
<def:Origin Type="Collected"/>
</ItemDef>
<ItemDef OID="IT.DM.RACE" Name="RACE" DataType="text" Length="25">
<Description><TranslatedText xml:lang="en">Race</TranslatedText></Description>
<def:Origin Type="Collected"/>
</ItemDef>
<ItemDef OID="IT.DM.ETHNIC" Name="ETHNIC" DataType="text" Length="22">
<Description><TranslatedText xml:lang="en">Ethnicity</TranslatedText></Description>
<def:Origin Type="Collected"/>
</ItemDef>
<ItemDef OID="IT.DM.ARMCD" Name="ARMCD" DataType="text" Length="2">
<Description><TranslatedText xml:lang="en">Planned Arm Code</TranslatedText></Description>
<def:Origin Type="Assigned"/>
</ItemDef>
<ItemDef OID="IT.DM.ARM" Name="ARM" DataType="text" Length="15">
<Description><TranslatedText xml:lang="en">Description of Planned Arm</TranslatedText></Description>
<def:Origin Type="Assigned"/>
</ItemDef>
<ItemDef OID="IT.DM.ACTARMCD" Name="ACTARMCD" DataType="text" Length="2">
<Description><TranslatedText xml:lang="en">Actual Arm Code</TranslatedText></Description>
<def:Origin Type="Assigned"/>
</ItemDef>
<ItemDef OID="IT.DM.ACTARM" Name="ACTARM" DataType="text" Length="15">
<Description><TranslatedText xml:lang="en">Description of Actual Arm</TranslatedText></Description>
<def:Origin Type="Assigned"/>
</ItemDef>
<ItemDef OID="IT.DM.COUNTRY" Name="COUNTRY" DataType="text" Length="3">
<Description><TranslatedText xml:lang="en">Country</TranslatedText></Description>
<def:Origin Type="Assigned"/>
</ItemDef>
<ItemDef OID="IT.SE.STUDYID" Name="STUDYID" DataType="text" Length="14">
<Description><TranslatedText xml:lang="en">Study Identifier</TranslatedText></Description>
<def:Origin Type="Assigned"/>
</ItemDef>
<ItemDef OID="IT.SE.DOMAIN" Name="DOMAIN" DataType="text" Length="2">
<Description><TranslatedText xml:lang="en">Domain Abbreviation</TranslatedText></Description>
<def:Origin Type="Assigned"/>
</ItemDef>
<ItemDef OID="IT.SE.USUBJID" Name="USUBJID" DataType="text" Length="23">
<Description><TranslatedText xml:lang="en">Unique Subject Identifier</TranslatedText></Description>
<def:Origin Type="Assigned"/>
</ItemDef>
<ItemDef OID="IT.SE.SESEQ" Name="SESEQ" DataType="integer">
<Description><TranslatedText xml:lang="en">Sequence Number</TranslatedText></Description>
<def:Origin Type="Derived"/>
</ItemDef>
<ItemDef OID="IT.SE.ETCD" Name="ETCD" DataType="text" Length="4">
<Description><TranslatedText xml:lang="en">Element Code</TranslatedText></Description>
<def:Origin Type="Assigned"/>
</ItemDef>
<ItemDef OID="IT.SE.ELEMENT" Name="ELEMENT" DataType="text" Length="19">
<Description><TranslatedText xml:lang="en">Description of Element</TranslatedText></Description>
<def:Origin Type="Assigned"/>
</ItemDef>
<ItemDef OID="IT.SE.EPOCH" Name="EPOCH" DataType="text" Length="19">
<Description><TranslatedText xml:lang="en">Epoch</TranslatedText></Description>
<def:Origin Type="Assigned"/>
</ItemDef>
<ItemDef OID="IT.SE.TAETORD" Name="TAETORD" DataType="integer">
<Description><TranslatedText xml:lang="en">Planned Order of Element within Arm</TranslatedText></Description>
<def:Origin Type="Collected"/>
</ItemDef>
<ItemDef OID="IT.SE.SESTDTC" Name="SESTDTC" DataType="datetime">
<Description><TranslatedText xml:lang="en">Start Date/Time</TranslatedText></Description>
<def:Origin Type="Collected"/>
</ItemDef>
<ItemDef OID="IT.SE.SEENDTC" Name="SEENDTC" DataType="datetime">
<Description><TranslatedText xml:lang="en">End Date/Time</TranslatedText></Description>
<def:Origin Type="Collected"/>
</ItemDef>
<ItemDef OID="IT.SV.STUDYID" Name="STUDYID" DataType="text" Length="14">
<Description><TranslatedText xml:lang="en">Study Identifier</TranslatedText></Description>
<def:Origin Type="Assigned"/>
</ItemDef>
<ItemDef OID="IT.SV.DOMAIN" Name="DOMAIN" DataType="text" Length="2">
<Description><TranslatedText xml:lang="en">Domain Abbreviation</TranslatedText></Description>
<def:Origin Type="Assigned"/>
</ItemDef>
<ItemDef OID="IT.SV.USUBJID" Name="USUBJID" DataType="text" Length="23">
<Description><TranslatedText xml:lang="en">Unique Subject Identifier</TranslatedText></Description>
<def:Origin Type="Assigned"/>
</ItemDef>
<ItemDef OID="IT.SV.VISITNUM" Name="VISITNUM" DataType="integer">
<Description><TranslatedText xml:lang="en">Visit Number</TranslatedText></Description>
<def:Origin Type="Assigned"/>
</ItemDef>
<ItemDef OID="IT.SV.VISIT" Name="VISIT" DataType="text" Length="16">
<Description><TranslatedText xml:lang="en">Visit Name</TranslatedText></Description>
<def:Origin Type="Assigned"/>
</ItemDef>
<ItemDef OID="IT.SV.VISITDY" Name="VISITDY" DataType="integer">
<Description><TranslatedText xml:lang="en">Planned Study Day of Visit</TranslatedText></Description>
<def:Origin Type="Assigned"/>
</ItemDef>
<ItemDef OID="IT.SV.EPOCH" Name="EPOCH" DataType="text" Length="19">
<Description><TranslatedText xml:lang="en">Epoch</TranslatedText></Description>
<def:Origin Type="Assigned"/>
</ItemDef>
<ItemDef OID="IT.SV.SVSTDTC" Name="SVSTDTC" DataType="datetime">
<Description><TranslatedText xml:lang="en">Start Date/Time</TranslatedText></Description>
<def:Origin Type="Collected"/>
</ItemDef>
<ItemDef OID="IT.SV.SVENDTC" Name="SVENDTC" DataType="datetime">
<Description><TranslatedText xml:lang="en">End Date/Time</TranslatedText></Description>
<def:Origin Type="Collected"/>
</ItemDef>
<ItemDef OID="IT.SV.SVSTDY" Name="SVSTDY" DataType="integer">
<Description><TranslatedText xml:lang="en">Study Day of Start</TranslatedText></Description>
<def:Origin Type="Derived"/>
</ItemDef>
<ItemDef OID="IT.EX.STUDYID" Name="STUDYID" DataType="text" Length="14">
<Description><TranslatedText xml:lang="en">Study Identifier</TranslatedText></Description>
<def:Origin Type="Assigned"/>
</ItemDef>
<ItemDef OID="IT.EX.DOMAIN" Name="DOMAIN" DataType="text" Length="2">
<Description><TranslatedText xml:lang="en">Domain Abbreviation</TranslatedText></Description>
<def:Origin Type="Assigned"/>
</ItemDef>
<ItemDef OID="IT.EX.USUBJID" Name="USUBJID" DataType="text" Length="23">
<Description><TranslatedText xml:lang="en">Unique Subject Identifier</TranslatedText></Description>
<def:Origin Type="Assigned"/>
</ItemDef>
<ItemDef OID="IT.EX.EXSEQ" Name="EXSEQ" DataType="integer">
<Description><TranslatedText xml:lang="en">Sequence Number</TranslatedText></Description>
<def:Origin Type="Derived"/>
</ItemDef>
<ItemDef OID="IT.EX.EXTRT" Name="EXTRT" DataType="text" Length="7">
<Description><TranslatedText xml:lang="en">Name of Treatment</TranslatedText></Description>
<def:Origin Type="Collected"/>
</ItemDef>
<ItemDef OID="IT.EX.EXDOSE" Name="EXDOSE" DataType="float">
<Description><TranslatedText xml:lang="en">Dose</TranslatedText></Description>
<def:Origin Type="Collected"/>
</ItemDef>
<ItemDef OID="IT.EX.EXDOSU" Name="EXDOSU" DataType="text" Length="2">
<Description><TranslatedText xml:lang="en">Dose Units</TranslatedText></Description>
<def:Origin Type="Collected"/>
</ItemDef>
<ItemDef OID="IT.EX.EXDOSFRM" Name="EXDOSFRM" DataType="text" Length="23">
<Description><TranslatedText xml:lang="en">Dose Form</TranslatedText></Description>
<def:Origin Type="Collected"/>
</ItemDef>
<ItemDef OID="IT.EX.EXROUTE" Name="EXROUTE" DataType="text" Length="13">
<Description><TranslatedText xml:lang="en">Route of Administration</TranslatedText></Description>
<CodeListRef CodeListOID="CL.ROUTE"/>
<def:Origin Type="Collected"/>
</ItemDef>
<ItemDef OID="IT.EX.VISITNUM" Name="VISITNUM" DataType="integer">
<Description><TranslatedText xml:lang="en">Visit Number</TranslatedText></Description>
<def:Origin Type="Assigned"/>
</ItemDef>
<ItemDef OID="IT.EX.VISIT" Name="VISIT" DataType="text" Length="16">
<Description><TranslatedText xml:lang="en">Visit Name</TranslatedText></Description>
<def:Origin Type="Assigned"/>
</ItemDef>
<ItemDef OID="IT.EX.EPOCH" Name="EPOCH" DataType="text" Length="9">
<Description><TranslatedText xml:lang="en">Epoch</TranslatedText></Description>
<def:Origin Type="Assigned"/>
</ItemDef>
<ItemDef OID="IT.EX.EXSTDTC" Name="EXSTDTC" DataType="datetime">
<Description><TranslatedText xml:lang="en">Start Date/Time</TranslatedText></Description>
<def:Origin Type="Collected"/>
</ItemDef>
<ItemDef OID="IT.EX.EXENDTC" Name="EXENDTC" DataType="datetime">
<Description><TranslatedText xml:lang="en">End Date/Time</TranslatedText></Description>
<def:Origin Type="Collected"/>
</ItemDef>
<ItemDef OID="IT.EX.EXSTDY" Name="EXSTDY" DataType="integer">
<Description><TranslatedText xml:lang="en">Study Day of Start</TranslatedText></Description>
<def:Origin Type="Derived"/>
</ItemDef>
<ItemDef OID="IT.EX.EXENDY" Name="EXENDY" DataType="integer">
<Description><TranslatedText xml:lang="en">Study Day of End</TranslatedText></Description>
<def:Origin Type="Derived"/>
</ItemDef>
<ItemDef OID="IT.SUPPEX.STUDYID" Name="STUDYID" DataType="text" Length="14">
<Description><TranslatedText xml:lang="en">Study Identifier</TranslatedText></Description>
<def:Origin Type="Assigned"/>
</ItemDef>
<ItemDef OID="IT.SUPPEX.RDOMAIN" Name="RDOMAIN" DataType="text" Length="2">
<Description><TranslatedText xml:lang="en">Related Domain Abbreviation</TranslatedText></Description>
<def:Origin Type="Assigned"/>
</ItemDef>
<ItemDef OID="IT.SUPPEX.USUBJID" Name="USUBJID" DataType="text" Length="23">
<Description><TranslatedText xml:lang="en">Unique Subject Identifier</TranslatedText></Description>
<def:Origin Type="Assigned"/>
</ItemDef>
<ItemDef OID="IT.SUPPEX.IDVAR" Name="IDVAR" DataType="text" Length="5">
<Description><TranslatedText xml:lang="en">Identifying Variable</TranslatedText></Description>
<def:Origin Type="Collected"/>
</ItemDef>
<ItemDef OID="IT.SUPPEX.IDVARVAL" Name="IDVARVAL" DataType="text" Length="1">
<Description><TranslatedText xml:lang="en">Identifying Variable Value</TranslatedText></Description>
<def:Origin Type="Collected"/>
</ItemDef>
<ItemDef OID="IT.SUPPEX.QNAM" Name="QNAM" DataType="text" Length="8">
<Description><TranslatedText xml:lang="en">Qualifier Variable Name</TranslatedText></Description>
<def:Origin Type="Collected"/>
</ItemDef>
<ItemDef OID="IT.SUPPEX.QLABEL" Name="QLABEL" DataType="text" Length="33">
<Description><TranslatedText xml:lang="en">Qualifier Variable Label</TranslatedText></Description>
<def:Origin Type="Collected"/>
</ItemDef>
<ItemDef OID="IT.SUPPEX.QVAL" Name="QVAL" DataType="text" Length="11">
<Description><TranslatedText xml:lang="en">Data Value</TranslatedText></Description>
<def:Origin Type="Collected"/>
</ItemDef>
<ItemDef OID="IT.SUPPEX.QORIG" Name="QORIG" DataType="text" Length="9">
<Description><TranslatedText xml:lang="en">Origin</TranslatedText></Description>
<def:Origin Type="Collected"/>
</ItemDef>
<ItemDef OID="IT.SUPPEX.QEVAL" Name="QEVAL" DataType="text" Length="1">
<Description><TranslatedText xml:lang="en">Evaluator</TranslatedText></Description>
<def:Origin Type="Collected"/>
</ItemDef>
<ItemDef OID="IT.CM.STUDYID" Name="STUDYID" DataType="text" Length="14">
<Description><TranslatedText xml:lang="en">Study Identifier</TranslatedText></Description>
<def:Origin Type="Assigned"/>
</ItemDef>
<ItemDef OID="IT.CM.DOMAIN" Name="DOMAIN" DataType="text" Length="2">
<Description><TranslatedText xml:lang="en">Domain Abbreviation</TranslatedText></Description>
<def:Origin Type="Assigned"/>
</ItemDef>
<ItemDef OID="IT.CM.USUBJID" Name="USUBJID" DataType="text" Length="23">
<Description><TranslatedText xml:lang="en">Unique Subject Identifier</TranslatedText></Description>
<def:Origin Type="Assigned"/>
</ItemDef>
<ItemDef OID="IT.CM.CMSEQ" Name="CMSEQ" DataType="integer">
<Description><TranslatedText xml:lang="en">Sequence Number</TranslatedText></Description>
<def:Origin Type="Derived"/>
</ItemDef>
<ItemDef OID="IT.CM.CMTRT" Name="CMTRT" DataType="text" Length="20">
<Description><TranslatedText xml:lang="en">Reported Name of Drug, Med, or Therapy</TranslatedText></Description>
<def:Origin Type="Collected"/>
</ItemDef>
<ItemDef OID="IT.CM.CMDECOD" Name="CMDECOD" DataType="text" Length="24">
<Description><TranslatedText xml:lang="en">Standardized Medication</TranslatedText></Description>
<def:Origin Type="Assigned"/>
</ItemDef>
<ItemDef OID="IT.CM.CMCLAS" Name="CMCLAS" DataType="text" Length="50">
<Description><TranslatedText xml:lang="en">Medication Class</TranslatedText></Description>
<def:Origin Type="Assigned"/>
</ItemDef>
<ItemDef OID="IT.CM.CMINDC" Name="CMINDC" DataType="text" Length="19">
<Description><TranslatedText xml:lang="en">Indication</TranslatedText></Description>
<def:Origin Type="Collected"/>
</ItemDef>
<ItemDef OID="IT.CM.CMDOSE" Name="CMDOSE" DataType="float">
<Description><TranslatedText xml:lang="en">Dose</TranslatedText></Description>
<def:Origin Type="Collected"/>
</ItemDef>
<ItemDef OID="IT.CM.CMDOSU" Name="CMDOSU" DataType="text" Length="2">
<Description><TranslatedText xml:lang="en">Dose Units</TranslatedText></Description>
<def:Origin Type="Collected"/>
</ItemDef>
<ItemDef OID="IT.CM.CMDOSFRQ" Name="CMDOSFRQ" DataType="text" Length="3">
<Description><TranslatedText xml:lang="en">Dosing Frequency per Interval</TranslatedText></Description>
<CodeListRef CodeListOID="CL.FREQ"/>
<def:Origin Type="Collected"/>
</ItemDef>
<ItemDef OID="IT.CM.CMROUTE" Name="CMROUTE" DataType="text" Length="4">
<Description><TranslatedText xml:lang="en">Route of Administration</TranslatedText></Description>
<CodeListRef CodeListOID="CL.ROUTE"/>
<def:Origin Type="Collected"/>
</ItemDef>
<ItemDef OID="IT.CM.CMSTDTC" Name="CMSTDTC" DataType="datetime">
<Description><TranslatedText xml:lang="en">Start Date/Time</TranslatedText></Description>
<def:Origin Type="Collected"/>
</ItemDef>
<ItemDef OID="IT.CM.CMENDTC" Name="CMENDTC" DataType="datetime">
<Description><TranslatedText xml:lang="en">End Date/Time</TranslatedText></Description>
<def:Origin Type="Collected"/>
</ItemDef>
<ItemDef OID="IT.CM.CMSTDY" Name="CMSTDY" DataType="integer">
<Description><TranslatedText xml:lang="en">Study Day of Start</TranslatedText></Description>
<def:Origin Type="Derived"/>
</ItemDef>
<ItemDef OID="IT.CM.CMENDY" Name="CMENDY" DataType="integer">
<Description><TranslatedText xml:lang="en">Study Day of End</TranslatedText></Description>
<def:Origin Type="Derived"/>
</ItemDef>
<ItemDef OID="IT.CM.CMENRTPT" Name="CMENRTPT" DataType="text" Length="7">
<Description><TranslatedText xml:lang="en">End Relative to Reference Time Point</TranslatedText></Description>
<def:Origin Type="Collected"/>
</ItemDef>
<ItemDef OID="IT.CM.CMENTPT" Name="CMENTPT" DataType="text" Length="12">
<Description><TranslatedText xml:lang="en">End Reference Time Point</TranslatedText></Description>
<def:Origin Type="Collected"/>
</ItemDef>
<ItemDef OID="IT.AE.STUDYID" Name="STUDYID" DataType="text" Length="14">
<Description><TranslatedText xml:lang="en">Study Identifier</TranslatedText></Description>
<def:Origin Type="Assigned"/>
</ItemDef>
<ItemDef OID="IT.AE.DOMAIN" Name="DOMAIN" DataType="text" Length="2">
<Description><TranslatedText xml:lang="en">Domain Abbreviation</TranslatedText></Description>
<def:Origin Type="Assigned"/>
</ItemDef>
<ItemDef OID="IT.AE.USUBJID" Name="USUBJID" DataType="text" Length="23">
<Description><TranslatedText xml:lang="en">Unique Subject Identifier</TranslatedText></Description>
<def:Origin Type="Assigned"/>
</ItemDef>
<ItemDef OID="IT.AE.AESEQ" Name="AESEQ" DataType="integer">
<Description><TranslatedText xml:lang="en">Sequence Number</TranslatedText></Description>
<def:Origin Type="Derived"/>
</ItemDef>
<ItemDef OID="IT.AE.AETERM" Name="AETERM" DataType="text" Length="45">
<Description><TranslatedText xml:lang="en">Reported Term for the Adverse Event</TranslatedText></Description>
<def:Origin Type="Collected"/>
</ItemDef>
<ItemDef OID="IT.AE.AEDECOD" Name="AEDECOD" DataType="text" Length="25">
<Description><TranslatedText xml:lang="en">Standardized Adverse Event</TranslatedText></Description>
<def:Origin Type="Assigned"/>
</ItemDef>
<ItemDef OID="IT.AE.AEBODSYS" Name="AEBODSYS" DataType="text" Length="52">
<Description><TranslatedText xml:lang="en">Body System or Organ Class</TranslatedText></Description>
<def:Origin Type="Assigned"/>
</ItemDef>
<ItemDef OID="IT.AE.AESER" Name="AESER" DataType="text" Length="1">
<Description><TranslatedText xml:lang="en">Serious Event</TranslatedText></Description>
<CodeListRef CodeListOID="CL.NY"/>
<def:Origin Type="Collected"/>
</ItemDef>
<ItemDef OID="IT.AE.AESDTH" Name="AESDTH" DataType="text" Length="1">
<Description><TranslatedText xml:lang="en">Results in Death</TranslatedText></Description>
<CodeListRef CodeListOID="CL.NY"/>
<def:Origin Type="Collected"/>
</ItemDef>
<ItemDef OID="IT.AE.AESHOSP" Name="AESHOSP" DataType="text" Length="1">
<Description><TranslatedText xml:lang="en">Requires or Prolongs Hospitalization</TranslatedText></Description>
<CodeListRef CodeListOID="CL.NY"/>
<def:Origin Type="Collected"/>
</ItemDef>
<ItemDef OID="IT.AE.AEACN" Name="AEACN" DataType="text" Length="14">
<Description><TranslatedText xml:lang="en">Action Taken with Study Treatment</TranslatedText></Description>
<CodeListRef CodeListOID="CL.AEACN"/>
<def:Origin Type="Collected"/>
</ItemDef>
<ItemDef OID="IT.AE.AEREL" Name="AEREL" DataType="text" Length="16">
<Description><TranslatedText xml:lang="en">Causality</TranslatedText></Description>
<def:Origin Type="Collected"/>
</ItemDef>
<ItemDef OID="IT.AE.AEOUT" Name="AEOUT" DataType="text" Length="32">
<Description><TranslatedText xml:lang="en">Outcome of Adverse Event</TranslatedText></Description>
<CodeListRef CodeListOID="CL.AEOUT"/>
<def:Origin Type="Collected"/>
</ItemDef>
<ItemDef OID="IT.AE.AETOXGR" Name="AETOXGR" DataType="text" Length="1">
<Description><TranslatedText xml:lang="en">Standard Toxicity Grade</TranslatedText></Description>
<def:Origin Type="Collected"/>
</ItemDef>
<ItemDef OID="IT.AE.AECONTRT" Name="AECONTRT" DataType="text" Length="1">
<Description><TranslatedText xml:lang="en">Concomitant or Additional Trtmnt Given</TranslatedText></Description>
<CodeListRef CodeListOID="CL.NY"/>
<def:Origin Type="Collected"/>
</ItemDef>
<ItemDef OID="IT.AE.EPOCH" Name="EPOCH" DataType="text" Length="9">
<Description><TranslatedText xml:lang="en">Epoch</TranslatedText></Description>
<def:Origin Type="Assigned"/>
</ItemDef>
<ItemDef OID="IT.AE.AESTDTC" Name="AESTDTC" DataType="datetime">
<Description><TranslatedText xml:lang="en">Start Date/Time</TranslatedText></Description>
<def:Origin Type="Collected"/>
</ItemDef>
<ItemDef OID="IT.AE.AEENDTC" Name="AEENDTC" DataType="datetime">
<Description><TranslatedText xml:lang="en">End Date/Time</TranslatedText></Description>
<def:Origin Type="Collected"/>
</ItemDef>
<ItemDef OID="IT.AE.AESTDY" Name="AESTDY" DataType="integer">
<Description><TranslatedText xml:lang="en">Study Day of Start</TranslatedText></Description>
<def:Origin Type="Derived"/>
</ItemDef>
<ItemDef OID="IT.AE.AEENDY" Name="AEENDY" DataType="integer">
<Description><TranslatedText xml:lang="en">Study Day of End</TranslatedText></Description>
<def:Origin Type="Derived"/>
</ItemDef>
<ItemDef OID="IT.AE.AEENRTPT" Name="AEENRTPT" DataType="text" Length="1">
<Description><TranslatedText xml:lang="en">End Relative to Reference Time Point</TranslatedText></Description>
<def:Origin Type="Collected"/>
</ItemDef>
<ItemDef OID="IT.AE.AEENTPT" Name="AEENTPT" DataType="text" Length="1">
<Description><TranslatedText xml:lang="en">End Reference Time Point</TranslatedText></Description>
<def:Origin Type="Collected"/>
</ItemDef>
<ItemDef OID="IT.SUPPAE.STUDYID" Name="STUDYID" DataType="text" Length="14">
<Description><TranslatedText xml:lang="en">Study Identifier</TranslatedText></Description>
<def:Origin Type="Assigned"/>
</ItemDef>
<ItemDef OID="IT.SUPPAE.RDOMAIN" Name="RDOMAIN" DataType="text" Length="2">
<Description><TranslatedText xml:lang="en">Related Domain Abbreviation</TranslatedText></Description>
<def:Origin Type="Assigned"/>
</ItemDef>
<ItemDef OID="IT.SUPPAE.USUBJID" Name="USUBJID" DataType="text" Length="23">
<Description><TranslatedText xml:lang="en">Unique Subject Identifier</TranslatedText></Description>
<def:Origin Type="Assigned"/>
</ItemDef>
<ItemDef OID="IT.SUPPAE.IDVAR" Name="IDVAR" DataType="text" Length="5">
<Description><TranslatedText xml:lang="en">Identifying Variable</TranslatedText></Description>
<def:Origin Type="Collected"/>
</ItemDef>
<ItemDef OID="IT.SUPPAE.IDVARVAL" Name="IDVARVAL" DataType="text" Length="1">
<Description><TranslatedText xml:lang="en">Identifying Variable Value</TranslatedText></Description>
<def:Origin Type="Collected"/>
</ItemDef>
<ItemDef OID="IT.SUPPAE.QNAM" Name="QNAM" DataType="text" Length="5">
<Description><TranslatedText xml:lang="en">Qualifier Variable Name</TranslatedText></Description>
<def:Origin Type="Collected"/>
</ItemDef>
<ItemDef OID="IT.SUPPAE.QLABEL" Name="QLABEL" DataType="text" Length="22">
<Description><TranslatedText xml:lang="en">Qualifier Variable Label</TranslatedText></Description>
<def:Origin Type="Collected"/>
</ItemDef>
<ItemDef OID="IT.SUPPAE.QVAL" Name="QVAL" DataType="text" Length="1">
<Description><TranslatedText xml:lang="en">Data Value</TranslatedText></Description>
<def:Origin Type="Collected"/>
</ItemDef>
<ItemDef OID="IT.SUPPAE.QORIG" Name="QORIG" DataType="text" Length="9">
<Description><TranslatedText xml:lang="en">Origin</TranslatedText></Description>
<def:Origin Type="Collected"/>
</ItemDef>
<ItemDef OID="IT.SUPPAE.QEVAL" Name="QEVAL" DataType="text" Length="12">
<Description><TranslatedText xml:lang="en">Evaluator</TranslatedText></Description>
<def:Origin Type="Collected"/>
</ItemDef>
<ItemDef OID="IT.MH.STUDYID" Name="STUDYID" DataType="text" Length="14">
<Description><TranslatedText xml:lang="en">Study Identifier</TranslatedText></Description>
<def:Origin Type="Assigned"/>
</ItemDef>
<ItemDef OID="IT.MH.DOMAIN" Name="DOMAIN" DataType="text" Length="2">
<Description><TranslatedText xml:lang="en">Domain Abbreviation</TranslatedText></Description>
<def:Origin Type="Assigned"/>
</ItemDef>
<ItemDef OID="IT.MH.USUBJID" Name="USUBJID" DataType="text" Length="23">
<Description><TranslatedText xml:lang="en">Unique Subject Identifier</TranslatedText></Description>
<def:Origin Type="Assigned"/>
</ItemDef>
<ItemDef OID="IT.MH.MHSEQ" Name="MHSEQ" DataType="integer">
<Description><TranslatedText xml:lang="en">Sequence Number</TranslatedText></Description>
<def:Origin Type="Derived"/>
</ItemDef>
<ItemDef OID="IT.MH.MHTERM" Name="MHTERM" DataType="text" Length="34">
<Description><TranslatedText xml:lang="en">Reported Term for the Medical History</TranslatedText></Description>
<def:Origin Type="Collected"/>
</ItemDef>
<ItemDef OID="IT.MH.MHDECOD" Name="MHDECOD" DataType="text" Length="24">
<Description><TranslatedText xml:lang="en">Standardized Medical History</TranslatedText></Description>
<def:Origin Type="Assigned"/>
</ItemDef>
<ItemDef OID="IT.MH.MHBODSYS" Name="MHBODSYS" DataType="text" Length="34">
<Description><TranslatedText xml:lang="en">Body System or Organ Class</TranslatedText></Description>
<def:Origin Type="Assigned"/>
</ItemDef>
<ItemDef OID="IT.MH.MHCAT" Name="MHCAT" DataType="text" Length="7">
<Description><TranslatedText xml:lang="en">Category</TranslatedText></Description>
<def:Origin Type="Collected"/>
</ItemDef>
<ItemDef OID="IT.MH.MHSTDTC" Name="MHSTDTC" DataType="datetime">
<Description><TranslatedText xml:lang="en">Start Date/Time</TranslatedText></Description>
<def:Origin Type="Collected"/>
</ItemDef>
<ItemDef OID="IT.MH.MHENRTPT" Name="MHENRTPT" DataType="text" Length="7">
<Description><TranslatedText xml:lang="en">End Relative to Reference Time Point</TranslatedText></Description>
<def:Origin Type="Collected"/>
</ItemDef>
<ItemDef OID="IT.MH.MHENTPT" Name="MHENTPT" DataType="text" Length="12">
<Description><TranslatedText xml:lang="en">End Reference Time Point</TranslatedText></Description>
<def:Origin Type="Collected"/>
</ItemDef>
<ItemDef OID="IT.DS.STUDYID" Name="STUDYID" DataType="text" Length="14">
<Description><TranslatedText xml:lang="en">Study Identifier</TranslatedText></Description>
<def:Origin Type="Assigned"/>
</ItemDef>
<ItemDef OID="IT.DS.DOMAIN" Name="DOMAIN" DataType="text" Length="2">
<Description><TranslatedText xml:lang="en">Domain Abbreviation</TranslatedText></Description>
<def:Origin Type="Assigned"/>
</ItemDef>
<ItemDef OID="IT.DS.USUBJID" Name="USUBJID" DataType="text" Length="23">
<Description><TranslatedText xml:lang="en">Unique Subject Identifier</TranslatedText></Description>
<def:Origin Type="Assigned"/>
</ItemDef>
<ItemDef OID="IT.DS.DSSEQ" Name="DSSEQ" DataType="integer">
<Description><TranslatedText xml:lang="en">Sequence Number</TranslatedText></Description>
<def:Origin Type="Derived"/>
</ItemDef>
<ItemDef OID="IT.DS.DSTERM" Name="DSTERM" DataType="text" Length="36">
<Description><TranslatedText xml:lang="en">Reported Term for the Disposition Event</TranslatedText></Description>
<def:Origin Type="Collected"/>
</ItemDef>
<ItemDef OID="IT.DS.DSDECOD" Name="DSDECOD" DataType="text" Length="25">
<Description><TranslatedText xml:lang="en">Standardized Disposition Term</TranslatedText></Description>
<def:Origin Type="Assigned"/>
</ItemDef>
<ItemDef OID="IT.DS.DSCAT" Name="DSCAT" DataType="text" Length="18">
<Description><TranslatedText xml:lang="en">Category</TranslatedText></Description>
<def:Origin Type="Collected"/>
</ItemDef>
<ItemDef OID="IT.DS.DSSCAT" Name="DSSCAT" DataType="text" Length="15">
<Description><TranslatedText xml:lang="en">Subcategory</TranslatedText></Description>
<def:Origin Type="Collected"/>
</ItemDef>
<ItemDef OID="IT.DS.VISITNUM" Name="VISITNUM" DataType="integer">
<Description><TranslatedText xml:lang="en">Visit Number</TranslatedText></Description>
<def:Origin Type="Assigned"/>
</ItemDef>
<ItemDef OID="IT.DS.VISIT" Name="VISIT" DataType="text" Length="15">
<Description><TranslatedText xml:lang="en">Visit Name</TranslatedText></Description>
<def:Origin Type="Assigned"/>
</ItemDef>
<ItemDef OID="IT.DS.EPOCH" Name="EPOCH" DataType="text" Length="19">
<Description><TranslatedText xml:lang="en">Epoch</TranslatedText></Description>
<def:Origin Type="Assigned"/>
</ItemDef>
<ItemDef OID="IT.DS.DSSTDTC" Name="DSSTDTC" DataType="datetime">
<Description><TranslatedText xml:lang="en">Start Date/Time</TranslatedText></Description>
<def:Origin Type="Collected"/>
</ItemDef>
<ItemDef OID="IT.DS.DSSTDY" Name="DSSTDY" DataType="integer">
<Description><TranslatedText xml:lang="en">Study Day of Start</TranslatedText></Description>
<def:Origin Type="Derived"/>
</ItemDef>
<ItemDef OID="IT.SUPPDS.STUDYID" Name="STUDYID" DataType="text" Length="14">
<Description><TranslatedText xml:lang="en">Study Identifier</TranslatedText></Description>
<def:Origin Type="Assigned"/>
</ItemDef>
<ItemDef OID="IT.SUPPDS.RDOMAIN" Name="RDOMAIN" DataType="text" Length="2">
<Description><TranslatedText xml:lang="en">Related Domain Abbreviation</TranslatedText></Description>
<def:Origin Type="Assigned"/>
</ItemDef>
<ItemDef OID="IT.SUPPDS.USUBJID" Name="USUBJID" DataType="text" Length="23">
<Description><TranslatedText xml:lang="en">Unique Subject Identifier</TranslatedText></Description>
<def:Origin Type="Assigned"/>
</ItemDef>
<ItemDef OID="IT.SUPPDS.IDVAR" Name="IDVAR" DataType="text" Length="5">
<Description><TranslatedText xml:lang="en">Identifying Variable</TranslatedText></Description>
<def:Origin Type="Collected"/>
</ItemDef>
<ItemDef OID="IT.SUPPDS.IDVARVAL" Name="IDVARVAL" DataType="text" Length="1">
<Description><TranslatedText xml:lang="en">Identifying Variable Value</TranslatedText></Description>
<def:Origin Type="Collected"/>
</ItemDef>
<ItemDef OID="IT.SUPPDS.QNAM" Name="QNAM" DataType="text" Length="8">
<Description><TranslatedText xml:lang="en">Qualifier Variable Name</TranslatedText></Description>
<def:Origin Type="Collected"/>
</ItemDef>
<ItemDef OID="IT.SUPPDS.QLABEL" Name="QLABEL" DataType="text" Length="13">
<Description><TranslatedText xml:lang="en">Qualifier Variable Label</TranslatedText></Description>
<def:Origin Type="Collected"/>
</ItemDef>
<ItemDef OID="IT.SUPPDS.QVAL" Name="QVAL" DataType="text" Length="37">
<Description><TranslatedText xml:lang="en">Data Value</TranslatedText></Description>
<def:Origin Type="Collected"/>
</ItemDef>
<ItemDef OID="IT.SUPPDS.QORIG" Name="QORIG" DataType="text" Length="9">
<Description><TranslatedText xml:lang="en">Origin</TranslatedText></Description>
<def:Origin Type="Collected"/>
</ItemDef>
<ItemDef OID="IT.SUPPDS.QEVAL" Name="QEVAL" DataType="text" Length="1">
<Description><TranslatedText xml:lang="en">Evaluator</TranslatedText></Description>
<def:Origin Type="Collected"/>
</ItemDef>
<ItemDef OID="IT.CE.STUDYID" Name="STUDYID" DataType="text" Length="14">
<Description><TranslatedText xml:lang="en">Study Identifier</TranslatedText></Description>
<def:Origin Type="Assigned"/>
</ItemDef>
<ItemDef OID="IT.CE.DOMAIN" Name="DOMAIN" DataType="text" Length="2">
<Description><TranslatedText xml:lang="en">Domain Abbreviation</TranslatedText></Description>
<def:Origin Type="Assigned"/>
</ItemDef>
<ItemDef OID="IT.CE.USUBJID" Name="USUBJID" DataType="text" Length="23">
<Description><TranslatedText xml:lang="en">Unique Subject Identifier</TranslatedText></Description>
<def:Origin Type="Assigned"/>
</ItemDef>
<ItemDef OID="IT.CE.CESEQ" Name="CESEQ" DataType="integer">
<Description><TranslatedText xml:lang="en">Sequence Number</TranslatedText></Description>
<def:Origin Type="Derived"/>
</ItemDef>
<ItemDef OID="IT.CE.CETERM" Name="CETERM" DataType="text" Length="18">
<Description><TranslatedText xml:lang="en">Reported Term for the Clinical Event</TranslatedText></Description>
<def:Origin Type="Collected"/>
</ItemDef>
<ItemDef OID="IT.CE.CEDECOD" Name="CEDECOD" DataType="text" Length="15">
<Description><TranslatedText xml:lang="en">Standardized Clinical Event</TranslatedText></Description>
<def:Origin Type="Assigned"/>
</ItemDef>
<ItemDef OID="IT.CE.CECAT" Name="CECAT" DataType="text" Length="25">
<Description><TranslatedText xml:lang="en">Category</TranslatedText></Description>
<def:Origin Type="Collected"/>
</ItemDef>
<ItemDef OID="IT.CE.VISITNUM" Name="VISITNUM" DataType="integer">
<Description><TranslatedText xml:lang="en">Visit Number</TranslatedText></Description>
<def:Origin Type="Assigned"/>
</ItemDef>
<ItemDef OID="IT.CE.VISIT" Name="VISIT" DataType="text" Length="15">
<Description><TranslatedText xml:lang="en">Visit Name</TranslatedText></Description>
<def:Origin Type="Assigned"/>
</ItemDef>
<ItemDef OID="IT.CE.EPOCH" Name="EPOCH" DataType="text" Length="19">
<Description><TranslatedText xml:lang="en">Epoch</TranslatedText></Description>
<def:Origin Type="Assigned"/>
</ItemDef>
<ItemDef OID="IT.CE.CESTDTC" Name="CESTDTC" DataType="datetime">
<Description><TranslatedText xml:lang="en">Start Date/Time</TranslatedText></Description>
<def:Origin Type="Collected"/>
</ItemDef>
<ItemDef OID="IT.CE.CESTDY" Name="CESTDY" DataType="integer">
<Description><TranslatedText xml:lang="en">Study Day of Start</TranslatedText></Description>
<def:Origin Type="Derived"/>
</ItemDef>
<ItemDef OID="IT.VS.STUDYID" Name="STUDYID" DataType="text" Length="14">
<Description><TranslatedText xml:lang="en">Study Identifier</TranslatedText></Description>
<def:Origin Type="Assigned"/>
</ItemDef>
<ItemDef OID="IT.VS.DOMAIN" Name="DOMAIN" DataType="text" Length="2">
<Description><TranslatedText xml:lang="en">Domain Abbreviation</TranslatedText></Description>
<def:Origin Type="Assigned"/>
</ItemDef>
<ItemDef OID="IT.VS.USUBJID" Name="USUBJID" DataType="text" Length="23">
<Description><TranslatedText xml:lang="en">Unique Subject Identifier</TranslatedText></Description>
<def:Origin Type="Assigned"/>
</ItemDef>
<ItemDef OID="IT.VS.VSSEQ" Name="VSSEQ" DataType="integer">
<Description><TranslatedText xml:lang="en">Sequence Number</TranslatedText></Description>
<def:Origin Type="Derived"/>
</ItemDef>
<ItemDef OID="IT.VS.VSTESTCD" Name="VSTESTCD" DataType="text" Length="6">
<Description><TranslatedText xml:lang="en">Vital Signs Test Short Name</TranslatedText></Description>
<def:Origin Type="Collected"/>
</ItemDef>
<ItemDef OID="IT.VS.VSTEST" Name="VSTEST" DataType="text" Length="24">
<Description><TranslatedText xml:lang="en">Vital Signs Test Name</TranslatedText></Description>
<def:Origin Type="Collected"/>
</ItemDef>
<ItemDef OID="IT.VS.VSPOS" Name="VSPOS" DataType="text" Length="6">
<Description><TranslatedText xml:lang="en">Vital Signs Position of Subject</TranslatedText></Description>
<CodeListRef CodeListOID="CL.POSITION"/>
<def:Origin Type="Collected"/>
</ItemDef>
<ItemDef OID="IT.VS.VSORRES" Name="VSORRES" DataType="text" Length="5">
<Description><TranslatedText xml:lang="en">Result or Finding in Original Units</TranslatedText></Description>
<def:Origin Type="Collected"/>
</ItemDef>
<ItemDef OID="IT.VS.VSORRESU" Name="VSORRESU" DataType="text" Length="11">
<Description><TranslatedText xml:lang="en">Original Units</TranslatedText></Description>
<def:Origin Type="Collected"/>
</ItemDef>
<ItemDef OID="IT.VS.VSSTRESC" Name="VSSTRESC" DataType="text" Length="5">
<Description><TranslatedText xml:lang="en">Character Result/Finding in Std Format</TranslatedText></Description>
<def:Origin Type="Derived"/>
</ItemDef>
<ItemDef OID="IT.VS.VSSTRESN" Name="VSSTRESN" DataType="float">
<Description><TranslatedText xml:lang="en">Numeric Result/Finding in Standard Units</TranslatedText></Description>
<def:Origin Type="Derived"/>
</ItemDef>
<ItemDef OID="IT.VS.VSSTRESU" Name="VSSTRESU" DataType="text" Length="11">
<Description><TranslatedText xml:lang="en">Standard Units</TranslatedText></Description>
<def:Origin Type="Derived"/>
</ItemDef>
<ItemDef OID="IT.VS.VSBLFL" Name="VSBLFL" DataType="text" Length="1">
<Description><TranslatedText xml:lang="en">Baseline Flag</TranslatedText></Description>
<def:Origin Type="Derived"/>
</ItemDef>
<ItemDef OID="IT.VS.VISITNUM" Name="VISITNUM" DataType="integer">
<Description><TranslatedText xml:lang="en">Visit Number</TranslatedText></Description>
<def:Origin Type="Assigned"/>
</ItemDef>
<ItemDef OID="IT.VS.VISIT" Name="VISIT" DataType="text" Length="16">
<Description><TranslatedText xml:lang="en">Visit Name</TranslatedText></Description>
<def:Origin Type="Assigned"/>
</ItemDef>
<ItemDef OID="IT.VS.EPOCH" Name="EPOCH" DataType="text" Length="9">
<Description><TranslatedText xml:lang="en">Epoch</TranslatedText></Description>
<def:Origin Type="Assigned"/>
</ItemDef>
<ItemDef OID="IT.VS.VSDTC" Name="VSDTC" DataType="datetime">
<Description><TranslatedText xml:lang="en">Date/Time of Collection</TranslatedText></Description>
<def:Origin Type="Collected"/>
</ItemDef>
<ItemDef OID="IT.VS.VSDY" Name="VSDY" DataType="integer">
<Description><TranslatedText xml:lang="en">Study Day of Visit/Collection</TranslatedText></Description>
<def:Origin Type="Derived"/>
</ItemDef>
<ItemDef OID="IT.LB.STUDYID" Name="STUDYID" DataType="text" Length="14">
<Description><TranslatedText xml:lang="en">Study Identifier</TranslatedText></Description>
<def:Origin Type="Assigned"/>
</ItemDef>
<ItemDef OID="IT.LB.DOMAIN" Name="DOMAIN" DataType="text" Length="2">
<Description><TranslatedText xml:lang="en">Domain Abbreviation</TranslatedText></Description>
<def:Origin Type="Assigned"/>
</ItemDef>
<ItemDef OID="IT.LB.USUBJID" Name="USUBJID" DataType="text" Length="23">
<Description><TranslatedText xml:lang="en">Unique Subject Identifier</TranslatedText></Description>
<def:Origin Type="Assigned"/>
</ItemDef>
<ItemDef OID="IT.LB.LBSEQ" Name="LBSEQ" DataType="integer">
<Description><TranslatedText xml:lang="en">Sequence Number</TranslatedText></Description>
<def:Origin Type="Derived"/>
</ItemDef>
<ItemDef OID="IT.LB.LBCAT" Name="LBCAT" DataType="text" Length="10">
<Description><TranslatedText xml:lang="en">Category</TranslatedText></Description>
<def:Origin Type="Collected"/>
</ItemDef>
<ItemDef OID="IT.LB.LBTESTCD" Name="LBTESTCD" DataType="text" Length="8">
<Description><TranslatedText xml:lang="en">Lab Test Short Name</TranslatedText></Description>
<def:Origin Type="Collected"/>
</ItemDef>
<ItemDef OID="IT.LB.LBTEST" Name="LBTEST" DataType="text" Length="26">
<Description><TranslatedText xml:lang="en">Lab Test Name</TranslatedText></Description>
<def:Origin Type="Collected"/>
</ItemDef>
<ItemDef OID="IT.LB.LBORRES" Name="LBORRES" DataType="text" Length="5">
<Description><TranslatedText xml:lang="en">Result or Finding in Original Units</TranslatedText></Description>
<def:Origin Type="Collected"/>
</ItemDef>
<ItemDef OID="IT.LB.LBORRESU" Name="LBORRESU" DataType="text" Length="6">
<Description><TranslatedText xml:lang="en">Original Units</TranslatedText></Description>
<def:Origin Type="Collected"/>
</ItemDef>
<ItemDef OID="IT.LB.LBORNRLO" Name="LBORNRLO" DataType="text" Length="4">
<Description><TranslatedText xml:lang="en">Reference Range Lower Limit-Orig Unit</TranslatedText></Description>
<def:Origin Type="Collected"/>
</ItemDef>
<ItemDef OID="IT.LB.LBORNRHI" Name="LBORNRHI" DataType="text" Length="4">
<Description><TranslatedText xml:lang="en">Reference Range Upper Limit-Orig Unit</TranslatedText></Description>
<def:Origin Type="Collected"/>
</ItemDef>
<ItemDef OID="IT.LB.LBSTRESC" Name="LBSTRESC" DataType="text" Length="5">
<Description><TranslatedText xml:lang="en">Character Result/Finding in Std Format</TranslatedText></Description>
<def:Origin Type="Derived"/>
</ItemDef>
<ItemDef OID="IT.LB.LBSTRESN" Name="LBSTRESN" DataType="float">
<Description><TranslatedText xml:lang="en">Numeric Result/Finding in Standard Units</TranslatedText></Description>
<def:Origin Type="Derived"/>
</ItemDef>
<ItemDef OID="IT.LB.LBSTRESU" Name="LBSTRESU" DataType="text" Length="6">
<Description><TranslatedText xml:lang="en">Standard Units</TranslatedText></Description>
<def:Origin Type="Derived"/>
</ItemDef>
<ItemDef OID="IT.LB.LBSTNRLO" Name="LBSTNRLO" DataType="float">
<Description><TranslatedText xml:lang="en">Reference Range Lower Limit-Std Units</TranslatedText></Description>
<def:Origin Type="Derived"/>
</ItemDef>
<ItemDef OID="IT.LB.LBSTNRHI" Name="LBSTNRHI" DataType="float">
<Description><TranslatedText xml:lang="en">Reference Range Upper Limit-Std Units</TranslatedText></Description>
<def:Origin Type="Derived"/>
</ItemDef>
<ItemDef OID="IT.LB.LBNRIND" Name="LBNRIND" DataType="text" Length="6">
<Description><TranslatedText xml:lang="en">Reference Range Indicator</TranslatedText></Description>
<CodeListRef CodeListOID="CL.NRIND"/>
<def:Origin Type="Collected"/>
</ItemDef>
<ItemDef OID="IT.LB.LBSPEC" Name="LBSPEC" DataType="text" Length="11">
<Description><TranslatedText xml:lang="en">Specimen Type</TranslatedText></Description>
<def:Origin Type="Collected"/>
</ItemDef>
<ItemDef OID="IT.LB.LBBLFL" Name="LBBLFL" DataType="text" Length="1">
<Description><TranslatedText xml:lang="en">Baseline Flag</TranslatedText></Description>
<def:Origin Type="Derived"/>
</ItemDef>
<ItemDef OID="IT.LB.VISITNUM" Name="VISITNUM" DataType="integer">
<Description><TranslatedText xml:lang="en">Visit Number</TranslatedText></Description>
<def:Origin Type="Assigned"/>
</ItemDef>
<ItemDef OID="IT.LB.VISIT" Name="VISIT" DataType="text" Length="16">
<Description><TranslatedText xml:lang="en">Visit Name</TranslatedText></Description>
<def:Origin Type="Assigned"/>
</ItemDef>
<ItemDef OID="IT.LB.EPOCH" Name="EPOCH" DataType="text" Length="9">
<Description><TranslatedText xml:lang="en">Epoch</TranslatedText></Description>
<def:Origin Type="Assigned"/>
</ItemDef>
<ItemDef OID="IT.LB.LBDTC" Name="LBDTC" DataType="datetime">
<Description><TranslatedText xml:lang="en">Date/Time of Collection</TranslatedText></Description>
<def:Origin Type="Collected"/>
</ItemDef>
<ItemDef OID="IT.LB.LBDY" Name="LBDY" DataType="integer">
<Description><TranslatedText xml:lang="en">Study Day of Visit/Collection</TranslatedText></Description>
<def:Origin Type="Derived"/>
</ItemDef>
<ItemDef OID="IT.EG.STUDYID" Name="STUDYID" DataType="text" Length="14">
<Description><TranslatedText xml:lang="en">Study Identifier</TranslatedText></Description>
<def:Origin Type="Assigned"/>
</ItemDef>
<ItemDef OID="IT.EG.DOMAIN" Name="DOMAIN" DataType="text" Length="2">
<Description><TranslatedText xml:lang="en">Domain Abbreviation</TranslatedText></Description>
<def:Origin Type="Assigned"/>
</ItemDef>
<ItemDef OID="IT.EG.USUBJID" Name="USUBJID" DataType="text" Length="23">
<Description><TranslatedText xml:lang="en">Unique Subject Identifier</TranslatedText></Description>
<def:Origin Type="Assigned"/>
</ItemDef>
<ItemDef OID="IT.EG.EGSEQ" Name="EGSEQ" DataType="integer">
<Description><TranslatedText xml:lang="en">Sequence Number</TranslatedText></Description>
<def:Origin Type="Derived"/>
</ItemDef>
<ItemDef OID="IT.EG.EGTESTCD" Name="EGTESTCD" DataType="text" Length="5">
<Description><TranslatedText xml:lang="en">ECG Test Short Name</TranslatedText></Description>
<def:Origin Type="Collected"/>
</ItemDef>
<ItemDef OID="IT.EG.EGTEST" Name="EGTEST" DataType="text" Length="36">
<Description><TranslatedText xml:lang="en">ECG Test Name</TranslatedText></Description>
<def:Origin Type="Collected"/>
</ItemDef>
<ItemDef OID="IT.EG.EGORRES" Name="EGORRES" DataType="text" Length="36">
<Description><TranslatedText xml:lang="en">Result or Finding in Original Units</TranslatedText></Description>
<def:Origin Type="Collected"/>
</ItemDef>
<ItemDef OID="IT.EG.EGORRESU" Name="EGORRESU" DataType="text" Length="9">
<Description><TranslatedText xml:lang="en">Original Units</TranslatedText></Description>
<def:Origin Type="Collected"/>
</ItemDef>
<ItemDef OID="IT.EG.EGSTRESC" Name="EGSTRESC" DataType="text" Length="36">
<Description><TranslatedText xml:lang="en">Character Result/Finding in Std Format</TranslatedText></Description>
<def:Origin Type="Derived"/>
</ItemDef>
<ItemDef OID="IT.EG.EGSTRESN" Name="EGSTRESN" DataType="float">
<Description><TranslatedText xml:lang="en">Numeric Result/Finding in Standard Units</TranslatedText></Description>
<def:Origin Type="Derived"/>
</ItemDef>
<ItemDef OID="IT.EG.EGSTRESU" Name="EGSTRESU" DataType="text" Length="9">
<Description><TranslatedText xml:lang="en">Standard Units</TranslatedText></Description>
<def:Origin Type="Derived"/>
</ItemDef>
<ItemDef OID="IT.EG.EGBLFL" Name="EGBLFL" DataType="text" Length="1">
<Description><TranslatedText xml:lang="en">Baseline Flag</TranslatedText></Description>
<def:Origin Type="Derived"/>
</ItemDef>
<ItemDef OID="IT.EG.VISITNUM" Name="VISITNUM" DataType="integer">
<Description><TranslatedText xml:lang="en">Visit Number</TranslatedText></Description>
<def:Origin Type="Assigned"/>
</ItemDef>
<ItemDef OID="IT.EG.VISIT" Name="VISIT" DataType="text" Length="16">
<Description><TranslatedText xml:lang="en">Visit Name</TranslatedText></Description>
<def:Origin Type="Assigned"/>
</ItemDef>
<ItemDef OID="IT.EG.EPOCH" Name="EPOCH" DataType="text" Length="9">
<Description><TranslatedText xml:lang="en">Epoch</TranslatedText></Description>
<def:Origin Type="Assigned"/>
</ItemDef>
<ItemDef OID="IT.EG.EGDTC" Name="EGDTC" DataType="datetime">
<Description><TranslatedText xml:lang="en">Date/Time of Collection</TranslatedText></Description>
<def:Origin Type="Collected"/>
</ItemDef>
<ItemDef OID="IT.EG.EGDY" Name="EGDY" DataType="integer">
<Description><TranslatedText xml:lang="en">Study Day of Visit/Collection</TranslatedText></Description>
<def:Origin Type="Derived"/>
</ItemDef>
<ItemDef OID="IT.IS.STUDYID" Name="STUDYID" DataType="text" Length="14">
<Description><TranslatedText xml:lang="en">Study Identifier</TranslatedText></Description>
<def:Origin Type="Assigned"/>
</ItemDef>
<ItemDef OID="IT.IS.DOMAIN" Name="DOMAIN" DataType="text" Length="2">
<Description><TranslatedText xml:lang="en">Domain Abbreviation</TranslatedText></Description>
<def:Origin Type="Assigned"/>
</ItemDef>
<ItemDef OID="IT.IS.USUBJID" Name="USUBJID" DataType="text" Length="23">
<Description><TranslatedText xml:lang="en">Unique Subject Identifier</TranslatedText></Description>
<def:Origin Type="Assigned"/>
</ItemDef>
<ItemDef OID="IT.IS.ISSEQ" Name="ISSEQ" DataType="integer">
<Description><TranslatedText xml:lang="en">Sequence Number</TranslatedText></Description>
<def:Origin Type="Derived"/>
</ItemDef>
<ItemDef OID="IT.IS.ISCAT" Name="ISCAT" DataType="text" Length="14">
<Description><TranslatedText xml:lang="en">Category</TranslatedText></Description>
<def:Origin Type="Collected"/>
</ItemDef>
<ItemDef OID="IT.IS.ISTESTCD" Name="ISTESTCD" DataType="text" Length="6">
<Description><TranslatedText xml:lang="en">Immunogenicity Test Short Name</TranslatedText></Description>
<def:Origin Type="Collected"/>
</ItemDef>
<ItemDef OID="IT.IS.ISTEST" Name="ISTEST" DataType="text" Length="36">
<Description><TranslatedText xml:lang="en">Immunogenicity Test Name</TranslatedText></Description>
<def:Origin Type="Collected"/>
</ItemDef>
<ItemDef OID="IT.IS.ISORRES" Name="ISORRES" DataType="text" Length="6">
<Description><TranslatedText xml:lang="en">Result or Finding in Original Units</TranslatedText></Description>
<def:Origin Type="Collected"/>
</ItemDef>
<ItemDef OID="IT.IS.ISORRESU" Name="ISORRESU" DataType="text" Length="15">
<Description><TranslatedText xml:lang="en">Original Units</TranslatedText></Description>
<def:Origin Type="Collected"/>
</ItemDef>
<ItemDef OID="IT.IS.ISSTRESC" Name="ISSTRESC" DataType="text" Length="6">
<Description><TranslatedText xml:lang="en">Character Result/Finding in Std Format</TranslatedText></Description>
<def:Origin Type="Derived"/>
</ItemDef>
<ItemDef OID="IT.IS.ISSTRESN" Name="ISSTRESN" DataType="float">
<Description><TranslatedText xml:lang="en">Numeric Result/Finding in Standard Units</TranslatedText></Description>
<def:Origin Type="Derived"/>
</ItemDef>
<ItemDef OID="IT.IS.ISSTRESU" Name="ISSTRESU" DataType="text" Length="15">
<Description><TranslatedText xml:lang="en">Standard Units</TranslatedText></Description>
<def:Origin Type="Derived"/>
</ItemDef>
<ItemDef OID="IT.IS.ISSPEC" Name="ISSPEC" DataType="text" Length="5">
<Description><TranslatedText xml:lang="en">Specimen Type</TranslatedText></Description>
<def:Origin Type="Collected"/>
</ItemDef>
<ItemDef OID="IT.IS.VISITNUM" Name="VISITNUM" DataType="integer">
<Description><TranslatedText xml:lang="en">Visit Number</TranslatedText></Description>
<def:Origin Type="Assigned"/>
</ItemDef>
<ItemDef OID="IT.IS.VISIT" Name="VISIT" DataType="text" Length="16">
<Description><TranslatedText xml:lang="en">Visit Name</TranslatedText></Description>
<def:Origin Type="Assigned"/>
</ItemDef>
<ItemDef OID="IT.IS.EPOCH" Name="EPOCH" DataType="text" Length="9">
<Description><TranslatedText xml:lang="en">Epoch</TranslatedText></Description>
<def:Origin Type="Assigned"/>
</ItemDef>
<ItemDef OID="IT.IS.ISDTC" Name="ISDTC" DataType="datetime">
<Description><TranslatedText xml:lang="en">Date/Time of Collection</TranslatedText></Description>
<def:Origin Type="Collected"/>
</ItemDef>
<ItemDef OID="IT.IS.ISDY" Name="ISDY" DataType="integer">
<Description><TranslatedText xml:lang="en">Study Day of Visit/Collection</TranslatedText></Description>
<def:Origin Type="Derived"/>
</ItemDef>
<ItemDef OID="IT.QS.STUDYID" Name="STUDYID" DataType="text" Length="14">
<Description><TranslatedText xml:lang="en">Study Identifier</TranslatedText></Description>
<def:Origin Type="Assigned"/>
</ItemDef>
<ItemDef OID="IT.QS.DOMAIN" Name="DOMAIN" DataType="text" Length="2">
<Description><TranslatedText xml:lang="en">Domain Abbreviation</TranslatedText></Description>
<def:Origin Type="Assigned"/>
</ItemDef>
<ItemDef OID="IT.QS.USUBJID" Name="USUBJID" DataType="text" Length="23">
<Description><TranslatedText xml:lang="en">Unique Subject Identifier</TranslatedText></Description>
<def:Origin Type="Assigned"/>
</ItemDef>
<ItemDef OID="IT.QS.QSSEQ" Name="QSSEQ" DataType="integer">
<Description><TranslatedText xml:lang="en">Sequence Number</TranslatedText></Description>
<def:Origin Type="Derived"/>
</ItemDef>
<ItemDef OID="IT.QS.QSCAT" Name="QSCAT" DataType="text" Length="5">
<Description><TranslatedText xml:lang="en">Category</TranslatedText></Description>
<def:Origin Type="Collected"/>
</ItemDef>
<ItemDef OID="IT.QS.QSTESTCD" Name="QSTESTCD" DataType="text" Length="8">
<Description><TranslatedText xml:lang="en">Question Test Short Name</TranslatedText></Description>
<def:Origin Type="Collected"/>
</ItemDef>
<ItemDef OID="IT.QS.QSTEST" Name="QSTEST" DataType="text" Length="26">
<Description><TranslatedText xml:lang="en">Question Test Name</TranslatedText></Description>
<def:Origin Type="Collected"/>
</ItemDef>
<ItemDef OID="IT.QS.QSORRES" Name="QSORRES" DataType="text" Length="4">
<Description><TranslatedText xml:lang="en">Result or Finding in Original Units</TranslatedText></Description>
<def:Origin Type="Collected"/>
</ItemDef>
<ItemDef OID="IT.QS.QSSTRESC" Name="QSSTRESC" DataType="text" Length="4">
<Description><TranslatedText xml:lang="en">Character Result/Finding in Std Format</TranslatedText></Description>
<def:Origin Type="Derived"/>
</ItemDef>
<ItemDef OID="IT.QS.QSSTRESN" Name="QSSTRESN" DataType="float">
<Description><TranslatedText xml:lang="en">Numeric Result/Finding in Standard Units</TranslatedText></Description>
<def:Origin Type="Derived"/>
</ItemDef>
<ItemDef OID="IT.QS.QSBLFL" Name="QSBLFL" DataType="text" Length="1">
<Description><TranslatedText xml:lang="en">Baseline Flag</TranslatedText></Description>
<def:Origin Type="Derived"/>
</ItemDef>
<ItemDef OID="IT.QS.VISITNUM" Name="VISITNUM" DataType="integer">
<Description><TranslatedText xml:lang="en">Visit Number</TranslatedText></Description>
<def:Origin Type="Assigned"/>
</ItemDef>
<ItemDef OID="IT.QS.VISIT" Name="VISIT" DataType="text" Length="15">
<Description><TranslatedText xml:lang="en">Visit Name</TranslatedText></Description>
<def:Origin Type="Assigned"/>
</ItemDef>
<ItemDef OID="IT.QS.EPOCH" Name="EPOCH" DataType="text" Length="9">
<Description><TranslatedText xml:lang="en">Epoch</TranslatedText></Description>
<def:Origin Type="Assigned"/>
</ItemDef>
<ItemDef OID="IT.QS.QSDTC" Name="QSDTC" DataType="datetime">
<Description><TranslatedText xml:lang="en">Date/Time of Collection</TranslatedText></Description>
<def:Origin Type="Collected"/>
</ItemDef>
<ItemDef OID="IT.QS.QSDY" Name="QSDY" DataType="integer">
<Description><TranslatedText xml:lang="en">Study Day of Visit/Collection</TranslatedText></Description>
<def:Origin Type="Derived"/>
</ItemDef>
<ItemDef OID="IT.FT.STUDYID" Name="STUDYID" DataType="text" Length="14">
<Description><TranslatedText xml:lang="en">Study Identifier</TranslatedText></Description>
<def:Origin Type="Assigned"/>
</ItemDef>
<ItemDef OID="IT.FT.DOMAIN" Name="DOMAIN" DataType="text" Length="2">
<Description><TranslatedText xml:lang="en">Domain Abbreviation</TranslatedText></Description>
<def:Origin Type="Assigned"/>
</ItemDef>
<ItemDef OID="IT.FT.USUBJID" Name="USUBJID" DataType="text" Length="23">
<Description><TranslatedText xml:lang="en">Unique Subject Identifier</TranslatedText></Description>
<def:Origin Type="Assigned"/>
</ItemDef>
<ItemDef OID="IT.FT.FTSEQ" Name="FTSEQ" DataType="integer">
<Description><TranslatedText xml:lang="en">Sequence Number</TranslatedText></Description>
<def:Origin Type="Derived"/>
</ItemDef>
<ItemDef OID="IT.FT.FTCAT" Name="FTCAT" DataType="text" Length="29">
<Description><TranslatedText xml:lang="en">Category</TranslatedText></Description>
<def:Origin Type="Collected"/>
</ItemDef>
<ItemDef OID="IT.FT.FTTESTCD" Name="FTTESTCD" DataType="text" Length="7">
<Description><TranslatedText xml:lang="en">Functional Test Test Short Name</TranslatedText></Description>
<def:Origin Type="Collected"/>
</ItemDef>
<ItemDef OID="IT.FT.FTTEST" Name="FTTEST" DataType="text" Length="26">
<Description><TranslatedText xml:lang="en">Functional Test Test Name</TranslatedText></Description>
<def:Origin Type="Collected"/>
</ItemDef>
<ItemDef OID="IT.FT.FTORRES" Name="FTORRES" DataType="text" Length="4">
<Description><TranslatedText xml:lang="en">Result or Finding in Original Units</TranslatedText></Description>
<def:Origin Type="Collected"/>
</ItemDef>
<ItemDef OID="IT.FT.FTORRESU" Name="FTORRESU" DataType="text" Length="9">
<Description><TranslatedText xml:lang="en">Original Units</TranslatedText></Description>
<def:Origin Type="Collected"/>
</ItemDef>
<ItemDef OID="IT.FT.FTSTRESC" Name="FTSTRESC" DataType="text" Length="4">
<Description><TranslatedText xml:lang="en">Character Result/Finding in Std Format</TranslatedText></Description>
<def:Origin Type="Derived"/>
</ItemDef>
<ItemDef OID="IT.FT.FTSTRESN" Name="FTSTRESN" DataType="float">
<Description><TranslatedText xml:lang="en">Numeric Result/Finding in Standard Units</TranslatedText></Description>
<def:Origin Type="Derived"/>
</ItemDef>
<ItemDef OID="IT.FT.FTSTRESU" Name="FTSTRESU" DataType="text" Length="9">
<Description><TranslatedText xml:lang="en">Standard Units</TranslatedText></Description>
<def:Origin Type="Derived"/>
</ItemDef>
<ItemDef OID="IT.FT.FTBLFL" Name="FTBLFL" DataType="text" Length="1">
<Description><TranslatedText xml:lang="en">Baseline Flag</TranslatedText></Description>
<def:Origin Type="Derived"/>
</ItemDef>
<ItemDef OID="IT.FT.VISITNUM" Name="VISITNUM" DataType="integer">
<Description><TranslatedText xml:lang="en">Visit Number</TranslatedText></Description>
<def:Origin Type="Assigned"/>
</ItemDef>
<ItemDef OID="IT.FT.VISIT" Name="VISIT" DataType="text" Length="15">
<Description><TranslatedText xml:lang="en">Visit Name</TranslatedText></Description>
<def:Origin Type="Assigned"/>
</ItemDef>
<ItemDef OID="IT.FT.EPOCH" Name="EPOCH" DataType="text" Length="9">
<Description><TranslatedText xml:lang="en">Epoch</TranslatedText></Description>
<def:Origin Type="Assigned"/>
</ItemDef>
<ItemDef OID="IT.FT.FTDTC" Name="FTDTC" DataType="datetime">
<Description><TranslatedText xml:lang="en">Date/Time of Collection</TranslatedText></Description>
<def:Origin Type="Collected"/>
</ItemDef>
<ItemDef OID="IT.FT.FTDY" Name="FTDY" DataType="integer">
<Description><TranslatedText xml:lang="en">Study Day of Visit/Collection</TranslatedText></Description>
<def:Origin Type="Derived"/>
</ItemDef>
<ItemDef OID="IT.ZE.STUDYID" Name="STUDYID" DataType="text" Length="14">
<Description><TranslatedText xml:lang="en">Study Identifier</TranslatedText></Description>
<def:Origin Type="Assigned"/>
</ItemDef>
<ItemDef OID="IT.ZE.DOMAIN" Name="DOMAIN" DataType="text" Length="2">
<Description><TranslatedText xml:lang="en">Domain Abbreviation</TranslatedText></Description>
<def:Origin Type="Assigned"/>
</ItemDef>
<ItemDef OID="IT.ZE.USUBJID" Name="USUBJID" DataType="text" Length="23">
<Description><TranslatedText xml:lang="en">Unique Subject Identifier</TranslatedText></Description>
<def:Origin Type="Assigned"/>
</ItemDef>
<ItemDef OID="IT.ZE.ZESEQ" Name="ZESEQ" DataType="integer">
<Description><TranslatedText xml:lang="en">Sequence Number</TranslatedText></Description>
<def:Origin Type="Derived"/>
</ItemDef>
<ItemDef OID="IT.ZE.ZECAT" Name="ZECAT" DataType="text" Length="16">
<Description><TranslatedText xml:lang="en">Category</TranslatedText></Description>
<def:Origin Type="Collected"/>
</ItemDef>
<ItemDef OID="IT.ZE.ZETESTCD" Name="ZETESTCD" DataType="text" Length="5">
<Description><TranslatedText xml:lang="en">Echo Test Short Name</TranslatedText></Description>
<def:Origin Type="Collected"/>
</ItemDef>
<ItemDef OID="IT.ZE.ZETEST" Name="ZETEST" DataType="text" Length="37">
<Description><TranslatedText xml:lang="en">Echo Test Name</TranslatedText></Description>
<def:Origin Type="Collected"/>
</ItemDef>
<ItemDef OID="IT.ZE.ZEORRES" Name="ZEORRES" DataType="text" Length="4">
<Description><TranslatedText xml:lang="en">Result or Finding in Original Units</TranslatedText></Description>
<def:Origin Type="Collected"/>
</ItemDef>
<ItemDef OID="IT.ZE.ZEORRESU" Name="ZEORRESU" DataType="text" Length="2">
<Description><TranslatedText xml:lang="en">Original Units</TranslatedText></Description>
<def:Origin Type="Collected"/>
</ItemDef>
<ItemDef OID="IT.ZE.ZESTRESC" Name="ZESTRESC" DataType="text" Length="4">
<Description><TranslatedText xml:lang="en">Character Result/Finding in Std Format</TranslatedText></Description>
<def:Origin Type="Derived"/>
</ItemDef>
<ItemDef OID="IT.ZE.ZESTRESN" Name="ZESTRESN" DataType="float">
<Description><TranslatedText xml:lang="en">Numeric Result/Finding in Standard Units</TranslatedText></Description>
<def:Origin Type="Derived"/>
</ItemDef>
<ItemDef OID="IT.ZE.ZESTRESU" Name="ZESTRESU" DataType="text" Length="2">
<Description><TranslatedText xml:lang="en">Standard Units</TranslatedText></Description>
<def:Origin Type="Derived"/>
</ItemDef>
<ItemDef OID="IT.ZE.ZEEVAL" Name="ZEEVAL" DataType="text" Length="14">
<Description><TranslatedText xml:lang="en">Evaluator</TranslatedText></Description>
<def:Origin Type="Collected"/>
</ItemDef>
<ItemDef OID="IT.ZE.ZEBLFL" Name="ZEBLFL" DataType="text" Length="1">
<Description><TranslatedText xml:lang="en">Baseline Flag</TranslatedText></Description>
<def:Origin Type="Derived"/>
</ItemDef>
<ItemDef OID="IT.ZE.VISITNUM" Name="VISITNUM" DataType="integer">
<Description><TranslatedText xml:lang="en">Visit Number</TranslatedText></Description>
<def:Origin Type="Assigned"/>
</ItemDef>
<ItemDef OID="IT.ZE.VISIT" Name="VISIT" DataType="text" Length="15">
<Description><TranslatedText xml:lang="en">Visit Name</TranslatedText></Description>
<def:Origin Type="Assigned"/>
</ItemDef>
<ItemDef OID="IT.ZE.EPOCH" Name="EPOCH" DataType="text" Length="9">
<Description><TranslatedText xml:lang="en">Epoch</TranslatedText></Description>
<def:Origin Type="Assigned"/>
</ItemDef>
<ItemDef OID="IT.ZE.ZEDTC" Name="ZEDTC" DataType="datetime">
<Description><TranslatedText xml:lang="en">Date/Time of Collection</TranslatedText></Description>
<def:Origin Type="Collected"/>
</ItemDef>
<ItemDef OID="IT.ZE.ZEDY" Name="ZEDY" DataType="integer">
<Description><TranslatedText xml:lang="en">Study Day of Visit/Collection</TranslatedText></Description>
<def:Origin Type="Derived"/>
</ItemDef>
<ItemDef OID="IT.PE.STUDYID" Name="STUDYID" DataType="text" Length="14">
<Description><TranslatedText xml:lang="en">Study Identifier</TranslatedText></Description>
<def:Origin Type="Assigned"/>
</ItemDef>
<ItemDef OID="IT.PE.DOMAIN" Name="DOMAIN" DataType="text" Length="2">
<Description><TranslatedText xml:lang="en">Domain Abbreviation</TranslatedText></Description>
<def:Origin Type="Assigned"/>
</ItemDef>
<ItemDef OID="IT.PE.USUBJID" Name="USUBJID" DataType="text" Length="23">
<Description><TranslatedText xml:lang="en">Unique Subject Identifier</TranslatedText></Description>
<def:Origin Type="Assigned"/>
</ItemDef>
<ItemDef OID="IT.PE.PESEQ" Name="PESEQ" DataType="integer">
<Description><TranslatedText xml:lang="en">Sequence Number</TranslatedText></Description>
<def:Origin Type="Derived"/>
</ItemDef>
<ItemDef OID="IT.PE.PETESTCD" Name="PETESTCD" DataType="text" Length="5">
<Description><TranslatedText xml:lang="en">Exam Test Short Name</TranslatedText></Description>
<def:Origin Type="Collected"/>
</ItemDef>
<ItemDef OID="IT.PE.PETEST" Name="PETEST" DataType="text" Length="29">
<Description><TranslatedText xml:lang="en">Exam Test Name</TranslatedText></Description>
<def:Origin Type="Collected"/>
</ItemDef>
<ItemDef OID="IT.PE.PEORRES" Name="PEORRES" DataType="text" Length="8">
<Description><TranslatedText xml:lang="en">Result or Finding in Original Units</TranslatedText></Description>
<def:Origin Type="Collected"/>
</ItemDef>
<ItemDef OID="IT.PE.PESTRESC" Name="PESTRESC" DataType="text" Length="8">
<Description><TranslatedText xml:lang="en">Character Result/Finding in Std Format</TranslatedText></Description>
<def:Origin Type="Derived"/>
</ItemDef>
<ItemDef OID="IT.PE.VISITNUM" Name="VISITNUM" DataType="integer">
<Description><TranslatedText xml:lang="en">Visit Number</TranslatedText></Description>
<def:Origin Type="Assigned"/>
</ItemDef>
<ItemDef OID="IT.PE.VISIT" Name="VISIT" DataType="text" Length="16">
<Description><TranslatedText xml:lang="en">Visit Name</TranslatedText></Description>
<def:Origin Type="Assigned"/>
</ItemDef>
<ItemDef OID="IT.PE.EPOCH" Name="EPOCH" DataType="text" Length="9">
<Description><TranslatedText xml:lang="en">Epoch</TranslatedText></Description>
<def:Origin Type="Assigned"/>
</ItemDef>
<ItemDef OID="IT.PE.PEDTC" Name="PEDTC" DataType="datetime">
<Description><TranslatedText xml:lang="en">Date/Time of Collection</TranslatedText></Description>
<def:Origin Type="Collected"/>
</ItemDef>
<ItemDef OID="IT.PE.PEDY" Name="PEDY" DataType="integer">
<Description><TranslatedText xml:lang="en">Study Day of Visit/Collection</TranslatedText></Description>
<def:Origin Type="Derived"/>
</ItemDef>
<ItemDef OID="IT.SUPPPE.STUDYID" Name="STUDYID" DataType="text" Length="14">
<Description><TranslatedText xml:lang="en">Study Identifier</TranslatedText></Description>
<def:Origin Type="Assigned"/>
</ItemDef>
<ItemDef OID="IT.SUPPPE.RDOMAIN" Name="RDOMAIN" DataType="text" Length="2">
<Description><TranslatedText xml:lang="en">Related Domain Abbreviation</TranslatedText></Description>
<def:Origin Type="Assigned"/>
</ItemDef>
<ItemDef OID="IT.SUPPPE.USUBJID" Name="USUBJID" DataType="text" Length="23">
<Description><TranslatedText xml:lang="en">Unique Subject Identifier</TranslatedText></Description>
<def:Origin Type="Assigned"/>
</ItemDef>
<ItemDef OID="IT.SUPPPE.IDVAR" Name="IDVAR" DataType="text" Length="5">
<Description><TranslatedText xml:lang="en">Identifying Variable</TranslatedText></Description>
<def:Origin Type="Collected"/>
</ItemDef>
<ItemDef OID="IT.SUPPPE.IDVARVAL" Name="IDVARVAL" DataType="text" Length="1">
<Description><TranslatedText xml:lang="en">Identifying Variable Value</TranslatedText></Description>
<def:Origin Type="Collected"/>
</ItemDef>
<ItemDef OID="IT.SUPPPE.QNAM" Name="QNAM" DataType="text" Length="7">
<Description><TranslatedText xml:lang="en">Qualifier Variable Name</TranslatedText></Description>
<def:Origin Type="Collected"/>
</ItemDef>
<ItemDef OID="IT.SUPPPE.QLABEL" Name="QLABEL" DataType="text" Length="23">
<Description><TranslatedText xml:lang="en">Qualifier Variable Label</TranslatedText></Description>
<def:Origin Type="Collected"/>
</ItemDef>
<ItemDef OID="IT.SUPPPE.QVAL" Name="QVAL" DataType="text" Length="18">
<Description><TranslatedText xml:lang="en">Data Value</TranslatedText></Description>
<def:Origin Type="Collected"/>
</ItemDef>
<ItemDef OID="IT.SUPPPE.QORIG" Name="QORIG" DataType="text" Length="9">
<Description><TranslatedText xml:lang="en">Origin</TranslatedText></Description>
<def:Origin Type="Collected"/>
</ItemDef>
<ItemDef OID="IT.SUPPPE.QEVAL" Name="QEVAL" DataType="text" Length="1">
<Description><TranslatedText xml:lang="en">Evaluator</TranslatedText></Description>
<def:Origin Type="Collected"/>
</ItemDef>
<ItemDef OID="IT.RELREC.STUDYID" Name="STUDYID" DataType="text" Length="14">
<Description><TranslatedText xml:lang="en">Study Identifier</TranslatedText></Description>
<def:Origin Type="Assigned"/>
</ItemDef>
<ItemDef OID="IT.RELREC.RDOMAIN" Name="RDOMAIN" DataType="text" Length="2">
<Description><TranslatedText xml:lang="en">Related Domain Abbreviation</TranslatedText></Description>
<def:Origin Type="Assigned"/>
</ItemDef>
<ItemDef OID="IT.RELREC.USUBJID" Name="USUBJID" DataType="text" Length="23">
<Description><TranslatedText xml:lang="en">Unique Subject Identifier</TranslatedText></Description>
<def:Origin Type="Assigned"/>
</ItemDef>
<ItemDef OID="IT.RELREC.IDVAR" Name="IDVAR" DataType="text" Length="5">
<Description><TranslatedText xml:lang="en">Identifying Variable</TranslatedText></Description>
<def:Origin Type="Collected"/>
</ItemDef>
<ItemDef OID="IT.RELREC.IDVARVAL" Name="IDVARVAL" DataType="text" Length="1">
<Description><TranslatedText xml:lang="en">Identifying Variable Value</TranslatedText></Description>
<def:Origin Type="Collected"/>
</ItemDef>
<ItemDef OID="IT.RELREC.RELTYPE" Name="RELTYPE" DataType="text" Length="4">
<Description><TranslatedText xml:lang="en">Relationship Type</TranslatedText></Description>
<def:Origin Type="Collected"/>
</ItemDef>
<ItemDef OID="IT.RELREC.RELID" Name="RELID" DataType="text" Length="8">
<Description><TranslatedText xml:lang="en">Relationship Identifier</TranslatedText></Description>
<def:Origin Type="Collected"/>
</ItemDef>
<CodeList OID="CL.NY" Name="No Yes Response" DataType="text">
<CodeListItem CodedValue="N"><Decode><TranslatedText xml:lang="en">No</TranslatedText></Decode></CodeListItem>
<CodeListItem CodedValue="Y"><Decode><TranslatedText xml:lang="en">Yes</TranslatedText></Decode></CodeListItem>
<CodeListItem CodedValue="U"><Decode><TranslatedText xml:lang="en">Unknown</TranslatedText></Decode></CodeListItem>
<CodeListItem CodedValue="NA"><Decode><TranslatedText xml:lang="en">Not Applicable</TranslatedText></Decode></CodeListItem>
</CodeList>
<CodeList OID="CL.SEX" Name="Sex" DataType="text">
<CodeListItem CodedValue="M"><Decode><TranslatedText xml:lang="en">Male</TranslatedText></Decode></CodeListItem>
<CodeListItem CodedValue="F"><Decode><TranslatedText xml:lang="en">Female</TranslatedText></Decode></CodeListItem>
<CodeListItem CodedValue="U"><Decode><TranslatedText xml:lang="en">Unknown</TranslatedText></Decode></CodeListItem>
</CodeList>
<CodeList OID="CL.AEOUT" Name="Outcome of Event" DataType="text">
<CodeListItem CodedValue="RECOVERED/RESOLVED"><Decode><TranslatedText xml:lang="en">Recovered/Resolved</TranslatedText></Decode></CodeListItem>
<CodeListItem CodedValue="RECOVERED/RESOLVED WITH SEQUELAE"><Decode><TranslatedText xml:lang="en">Recovered/Resolved With Sequelae</TranslatedText></Decode></CodeListItem>
<CodeListItem CodedValue="RECOVERING/RESOLVING"><Decode><TranslatedText xml:lang="en">Recovering/Resolving</TranslatedText></Decode></CodeListItem>
<CodeListItem CodedValue="NOT RECOVERED/NOT RESOLVED"><Decode><TranslatedText xml:lang="en">Not Recovered/Not Resolved</TranslatedText></Decode></CodeListItem>
<CodeListItem CodedValue="FATAL"><Decode><TranslatedText xml:lang="en">Fatal</TranslatedText></Decode></CodeListItem>
<CodeListItem CodedValue="UNKNOWN"><Decode><TranslatedText xml:lang="en">Unknown</TranslatedText></Decode></CodeListItem>
</CodeList>
<CodeList OID="CL.AEACN" Name="Action Taken with Study Treatment" DataType="text">
<CodeListItem CodedValue="NOT APPLICABLE"><Decode><TranslatedText xml:lang="en">Not Applicable</TranslatedText></Decode></CodeListItem>
<CodeListItem CodedValue="DOSE NOT CHANGED"><Decode><TranslatedText xml:lang="en">Dose Not Changed</TranslatedText></Decode></CodeListItem>
<CodeListItem CodedValue="DRUG WITHDRAWN"><Decode><TranslatedText xml:lang="en">Drug Withdrawn</TranslatedText></Decode></CodeListItem>
<CodeListItem CodedValue="DRUG INTERRUPTED"><Decode><TranslatedText xml:lang="en">Drug Interrupted</TranslatedText></Decode></CodeListItem>
<CodeListItem CodedValue="DOSE REDUCED"><Decode><TranslatedText xml:lang="en">Dose Reduced</TranslatedText></Decode></CodeListItem>
<CodeListItem CodedValue="DOSE INCREASED"><Decode><TranslatedText xml:lang="en">Dose Increased</TranslatedText></Decode></CodeListItem>
<CodeListItem CodedValue="UNKNOWN"><Decode><TranslatedText xml:lang="en">Unknown</TranslatedText></Decode></CodeListItem>
</CodeList>
<CodeList OID="CL.ROUTE" Name="Route of Administration" DataType="text">
<CodeListItem CodedValue="ORAL"><Decode><TranslatedText xml:lang="en">Oral</TranslatedText></Decode></CodeListItem>
<CodeListItem CodedValue="INTRACORONARY"><Decode><TranslatedText xml:lang="en">Intracoronary</TranslatedText></Decode></CodeListItem>
<CodeListItem CodedValue="INTRAVENOUS"><Decode><TranslatedText xml:lang="en">Intravenous</TranslatedText></Decode></CodeListItem>
<CodeListItem CodedValue="SUBCUTANEOUS"><Decode><TranslatedText xml:lang="en">Subcutaneous</TranslatedText></Decode></CodeListItem>
</CodeList>
<CodeList OID="CL.POSITION" Name="Position" DataType="text">
<CodeListItem CodedValue="SUPINE"><Decode><TranslatedText xml:lang="en">Supine</TranslatedText></Decode></CodeListItem>
<CodeListItem CodedValue="STANDING"><Decode><TranslatedText xml:lang="en">Standing</TranslatedText></Decode></CodeListItem>
<CodeListItem CodedValue="SITTING"><Decode><TranslatedText xml:lang="en">Sitting</TranslatedText></Decode></CodeListItem>
</CodeList>
<CodeList OID="CL.NRIND" Name="Reference Range Indicator" DataType="text">
<CodeListItem CodedValue="LOW"><Decode><TranslatedText xml:lang="en">Low</TranslatedText></Decode></CodeListItem>
<CodeListItem CodedValue="NORMAL"><Decode><TranslatedText xml:lang="en">Normal</TranslatedText></Decode></CodeListItem>
<CodeListItem CodedValue="HIGH"><Decode><TranslatedText xml:lang="en">High</TranslatedText></Decode></CodeListItem>
<CodeListItem CodedValue="ABNORMAL"><Decode><TranslatedText xml:lang="en">Abnormal</TranslatedText></Decode></CodeListItem>
</CodeList>
<CodeList OID="CL.FREQ" Name="Frequency" DataType="text">
<CodeListItem CodedValue="QD"><Decode><TranslatedText xml:lang="en">QD</TranslatedText></Decode></CodeListItem>
<CodeListItem CodedValue="BID"><Decode><TranslatedText xml:lang="en">BID</TranslatedText></Decode></CodeListItem>
<CodeListItem CodedValue="TID"><Decode><TranslatedText xml:lang="en">TID</TranslatedText></Decode></CodeListItem>
<CodeListItem CodedValue="ONCE"><Decode><TranslatedText xml:lang="en">ONCE</TranslatedText></Decode></CodeListItem>
<CodeListItem CodedValue="PRN"><Decode><TranslatedText xml:lang="en">PRN</TranslatedText></Decode></CodeListItem>
</CodeList>
</MetaDataVersion>
</Study>
</ODM>